trialid,simTime.ho,event.order,simTime.start,ppid,n_back,ttc_criticality.x,event,ho.rt,rt,ttc_criticality.y,braking_rt_faster,automation.response,collision,max_long_jerk,max_lat_jerk,max_long,mean_long,max_lat,sd_latacc,sd_steer,sdlp,mean_lat_acc,mean_decel,sd_yaw_automation,sd_pitch_automation,sd_yaw_manual,sd_pitch_manual
10_FALSE_4_3,672.166667,1,670.566667,10,FALSE,3,4,1.59999999999991,1.66666599999996,3,TRUE,brake,FALSE,-7.631839,1.168165,-9.988443,0.0296332494444444,0.890032,0.12862144707396,3.23483242326723,0.168041764912715,0.0826541866666667,-2.83665895490196,11.1795646359143,8.20912319949088,11.5323147160049,7.975220009307
10_FALSE_6_5,1011.833333,2,1009.883333,10,FALSE,5,6,1.95000000000005,1.21666700000003,5,TRUE,brake,FALSE,-8.594017,1.050447,-8.971926,-0.00506476111111112,1.050139,0.347360404201997,1.58664955467126,0.117393436190494,0.300467079444444,-2.18706774096386,16.4194652136824,5.23112749466112,7.9771612704709,4.83083668504398
10_FALSE_8_3,1273.383333,3,1271.75,10,FALSE,3,8,1.63333299999999,1.5,3,TRUE,brake,FALSE,-8.032295,0.79069,-10.391309,-0.0100497638888889,0.793892,0.263256815117451,1.61133491073474,0.148078268752239,0.236110531111111,-2.73032067944251,14.3354656473569,4.94971950544875,15.438065702941,6.72745838471531
10_FALSE_9_5,1407.9,4,1401.216667,10,FALSE,5,9,6.68333300000018,0.666666000000078,5,TRUE,brake,FALSE,-10.552899,0.311393,-10.69651,-0.0188709683333333,0.315285,0.0960678929940004,0.612981628140295,0.10973164721307,0.0718285061111111,-1.22540528143713,17.6179168222375,5.55720912808203,11.2612062770186,6.51090874094493
10_TRUE_10_5,1693.016667,4,1691.983333,10,TRUE,5,10,1.0333340000002,0.900000000000091,5,TRUE,brake,FALSE,-9.705022,1.449246,-10.030479,-0.0224915277777778,1.206547,0.325810167891134,2.06690742833106,0.0969576107490709,0.260987629444444,-1.08410160645933,15.5521864908646,3.8205596769548,10.6427112824287,5.54404792188861
10_TRUE_2_3,612.866667,1,611.6,10,TRUE,3,2,1.26666699999998,1.16666699999996,3,TRUE,brake,FALSE,-9.7519,0.6615,-10.132077,-0.0209617638888889,0.663327,0.129495550116747,0.984109431407398,0.0677010702382363,0.08329466,-2.86529974321503,8.6520671224062,3.56815962416121,9.40655460137078,6.25444600439316
10_TRUE_4_5,894.583333,2,869.35,10,TRUE,5,4,25.233333,0.783332999999971,5,TRUE,brake,FALSE,-9.947229,1.019813,-10.210422,-0.0295094927777778,1.019874,0.31402702494813,1.24125863186039,0.119101352203923,0.207156059444444,-1.10918486541245,10.382916045157,3.72281023479323,12.4435924049194,5.13435764592262
10_TRUE_6_3,1135.1,3,1130.35,10,TRUE,3,6,4.75,1.11666700000001,3,TRUE,brake,FALSE,-9.964463,1.181734,-10.344604,-0.0375564116666667,1.182043,0.389699609278745,1.53038417030727,0.192239948457199,0.292812775555556,-1.86777936263736,7.06352537179868,3.00233194054659,10.9069329220894,6.05615666455175
11_FALSE_1_5,409.85,1,407.35,11,FALSE,5,1,2.5,0.849999999999966,5,TRUE,brake,FALSE,-4.731138,0.580784,-5.046517,-0.00541028388888889,0.445874,0.104921761958518,0.573113444654247,0.110810890559355,0.0791029616666667,-0.834560253819037,2.73177874238238,2.22601946874339,8.40512252091169,4.75749220267705
11_FALSE_2_3,541.15,2,538.833333,11,FALSE,3,2,2.31666699999994,0.666666999999961,3,TRUE,brake,FALSE,-9.831246,1.179818,-10.21335,0.0307895027777778,1.179544,0.407737932486051,1.74734573232375,0.177130160006529,0.283447323888889,-3.47211193638677,6.05867390248366,2.59845661069493,5.35750495028456,5.51714877622659
11_FALSE_4_5,757.733333,3,756.583333,11,FALSE,5,4,1.14999999999998,0.766666999999984,5,TRUE,brake,FALSE,-5.538294,0.86712,-5.782276,-0.00916597166666667,0.876774,0.278983178307466,1.66268170628849,0.212113679460596,0.244142846666667,-1.663421,5.97772886315169,2.83765274972441,12.5406288790994,6.10727926499
11_FALSE_7_3,1231.983333,4,1230.8,11,FALSE,3,7,1.18333299999995,1.16666699999996,3,TRUE,brake,FALSE,-10.102984,0.361694,-10.480423,0.0533238866666667,0.358994,0.10608002247887,0.884700654096991,0.243497191771273,0.0779404933333333,-2.95237744016227,7.04955413704499,1.6556861777223,8.36035676565649,4.96294786517635
11_TRUE_1_3,274.45,1,273.133333,11,TRUE,3,1,1.316667,0.766666999999984,3,TRUE,brake,FALSE,-9.890735,0.317871,-10.265824,-0.0270320038888889,0.192307,0.0609039452340791,0.705589949493778,0.0808400446553935,0.0429589283333333,-3.63060313031915,3.60342269948031,2.41751029134928,10.1932265565731,5.41457594619674
11_TRUE_2_5,404.066667,2,402.6,11,TRUE,5,2,1.46666699999997,0.766666999999984,5,TRUE,brake,FALSE,-9.753891,1.229207,-10.024538,-0.0883618533333333,1.228967,0.326254630862966,1.56802459393002,0.194495039279534,0.223251767777778,-2.30932819266055,4.10610215356793,3.27507856869815,10.3448884421138,4.81611387494405
11_TRUE_4_5,623.333333,3,621.15,11,TRUE,5,4,2.18333300000006,0.766666999999984,5,TRUE,brake,FALSE,-6.972507,0.801052,-7.247639,0.0633636816666667,0.801023,0.280004400477101,1.784917229565,0.170478080595145,0.253938361666667,-2.02480027826087,2.38504422638181,2.53463069442155,9.22971359982376,4.3210998771896
11_TRUE_6_3,882.733333,4,881.35,11,TRUE,3,6,1.38333299999999,1.25,3,TRUE,brake,FALSE,-10.248134,4.017867,-10.634163,-0.102404302222222,4.933575,0.469900062983942,67.4703461157883,1.38436698075329,0.28912136,-5.76730478431373,4.72337023931175,4.85613268403211,13.8868673734542,5.25965992844227
12_FALSE_10_3,1410.35,4,1408.833333,12,FALSE,3,10,1.51666699999987,1.03333399999997,3,TRUE,brake,FALSE,-9.930861,3.693766,-10.317384,0.0451270555555556,4.598893,0.633687620511137,25.378671323144,0.249052041890915,0.267835978333333,-2.90576077708333,20.6255672712643,3.29644108418831,16.6834304833643,2.62037235519363
12_FALSE_2_5,366.05,1,364.566667,12,FALSE,5,2,1.48333300000002,1.76666599999999,5,TRUE,brake,FALSE,-9.862532,0.318123,-10.236908,0.0321615016666667,0.318968,0.121554817662593,0.885095520293979,0.110082529058959,0.095375575,-3.69087948979592,14.2779275562345,4.08930065032822,15.2170567507791,4.41200720571291
12_FALSE_4_3,586.5,2,584.9,12,FALSE,3,4,1.60000000000002,1.03333299999997,3,TRUE,brake,FALSE,-9.950797,1.14803,-10.33224,0.0137985027777778,1.148015,0.395829742320001,1.52729270697692,0.0768523956936358,0.285611211666667,-2.05900529690049,19.2688890481401,3.98417732198931,3.91900075729191,4.27990273162198
12_FALSE_6_5,846.6,3,844.466667,12,FALSE,5,6,2.13333299999999,0.983333000000016,5,TRUE,brake,FALSE,-9.533545,0.845769,-9.907222,0.0203913844444444,0.846923,0.307271214391907,1.67950710172644,0.251573026640744,0.274977898333333,-1.29328390835031,14.446530700977,3.95635234831364,11.32307691817,4.25412654338736
12_TRUE_10_3,1529.783333,4,1528.116667,12,TRUE,3,10,1.66666600000008,1.03333300000008,3,TRUE,brake,FALSE,-9.972102,1.362141,-10.345911,0.0403435377777778,1.367799,0.439270187965067,1.80185499980058,0.230379275793253,0.317571057222222,-2.911015936,8.67878138319302,3.04733712614262,13.751625057274,5.00678641977091
12_TRUE_1_5,280.066667,1,278.866667,12,TRUE,5,1,1.19999999999999,1.16666600000002,5,TRUE,brake,FALSE,-5.220816,0.993366,-5.601472,0.0209668277777778,0.993175,0.3043722906545,1.63586353523096,0.179407649843995,0.27150686,-0.874116737400531,1.56180383919853,2.25179890737237,7.51564763329516,4.93808555868391
12_TRUE_7_3,1180.833333,2,1179.283333,12,TRUE,3,7,1.54999999999995,1.14999999999986,3,TRUE,brake,FALSE,-9.996244,1.401863,-10.376247,0.0756869983333333,1.397479,0.24915493289278,3.28220613470555,0.208593121737557,0.216412944444444,-2.86993330339321,3.34848853232266,2.78601524489768,15.940358765313,7.67415142730594
12_TRUE_8_5,1311.2,3,1308.75,12,TRUE,5,8,2.45000000000005,1,5,TRUE,brake,FALSE,-7.747811,0.464629,-8.127145,-0.0104881022222222,0.459812,0.146166054904627,0.939132489058618,0.103883237104582,0.113761438333333,-1.18817407628524,3.55058586321266,2.75130783108278,14.4551937747227,3.99990596394636
13_FALSE_1_3,,,370.083333,13,FALSE,3,1,,1.41666700000002,3,TRUE,brake,FALSE,-8.781362,0.090475,-10.238015,0.062083985,0.09032,0.0381762399990957,0.317014203253643,0.0950239909690677,0.0285593355555556,-3.09386447587719,7.24417582601671,2.7520451394126,6.08301031833338,5.11857549899311
13_FALSE_3_5,599.266667,2,587.716667,13,FALSE,5,3,11.55,1.36666600000001,5,TRUE,brake,FALSE,-5.897778,0.966067,-6.275149,-0.0535994994444445,0.965416,0.33543601254143,1.31002562066505,0.0918507750786454,0.215878344444444,-0.771089765625,9.29238848375916,2.74777890477246,8.81125466176238,4.14435048831382
13_FALSE_6_3,1029.033333,3,1027.65,13,FALSE,3,6,1.38333299999999,1.28333299999986,3,TRUE,brake,FALSE,-9.81719,0.269871,-10.197979,0.0474022816666667,0.173063,0.0541597574301694,0.319629827275004,0.115241813170683,0.0376524561111111,-2.6072216252588,9.48578070459538,3.95214018474246,4.93474487270901,4.89196654359554
13_FALSE_7_5,1170.75,4,1157.133333,13,FALSE,5,7,13.616667,1.61666700000001,5,TRUE,brake,FALSE,-5.901505,2.922724,-6.277328,0.0658558366666667,2.923624,0.536766525177995,1.99651095230378,0.282430377651429,0.303579345,-0.916438160869565,9.84191190237067,3.88800456588875,4.26968716780205,3.9876606857567
13_TRUE_10_5,1486.666667,4,1485.45,13,TRUE,5,10,1.21666699999992,1.59999999999991,5,TRUE,brake,FALSE,-9.836062,1.27699,-10.216641,0.0437675016666667,1.272235,0.439445258830115,1.44528137066125,0.109563234012114,0.293339658333333,-1.03851976785714,4.33514061854474,4.16383550691565,3.05198284959684,4.53306712752495
13_TRUE_2_3,412.2,1,411.033333,13,TRUE,3,2,1.16666699999996,1.21666699999997,3,FALSE,steer,TRUE,-9.813445,0.510365,-10.194306,0.745053656111111,0.510497,0.0781922772716863,0.963362377930757,0.15579448077975,0.0417666005555556,-1.97389998833819,4.78309738705858,3.47378947554823,3.13136484139748,6.88735309826174
13_TRUE_4_5,630.966667,2,629.666667,13,TRUE,5,4,1.30000000000007,1.23333300000002,5,TRUE,brake,FALSE,-7.456176,1.320959,-7.837469,0.006403185,1.32136,0.409474073688113,1.44334221472632,0.157836042943775,0.292037195555556,-0.634819603386809,4.76963522002956,3.04517879850289,1.963841408934,2.68852122170375
13_TRUE_5_3,,,720.816667,13,TRUE,3,5,,1.1166659999999,3,TRUE,brake,FALSE,-9.936763,0.117051,-10.310215,0.0170853205555556,0.116787,0.0327842575122047,0.266056347162321,0.0718744251960485,0.0249333611111111,-2.15566731911263,4.27955674454299,3.77545828353174,2.31512751113488,3.21046989288052
14_FALSE_4_3,628.6,1,627.4,14,FALSE,3,4,1.20000000000005,1.41666700000008,3,TRUE,brake,TRUE,-8.208878,0.71706,-10.315569,0.479018079444445,0.716018,0.264304259639178,1.98237327813084,0.113864221519259,0.234577026666667,-2.88421596774194,17.3004776355361,2.43916074787766,13.8148116372475,5.84871680720811
14_FALSE_6_5,981.766667,2,980.433333,14,FALSE,5,6,1.33333400000004,1.30000000000007,5,TRUE,brake,FALSE,-9.936525,1.429881,-10.314202,0.0403290016666667,1.428627,0.441743396434123,1.55999006646622,0.0715974330135424,0.288974046666667,-1.1422358330494,15.1450572336157,2.51530186294591,11.9461242248493,4.28700163327223
14_FALSE_8_3,1240.433333,3,1239.516667,14,FALSE,3,8,0.91666599999985,1.14999999999986,3,TRUE,brake,FALSE,-9.998249,1.091978,-10.379648,0.0285404977777778,1.088858,0.358170288504119,1.82158428405997,0.194158095825375,0.282904792222222,-3.2358943062645,17.0994799419319,5.55597591471742,13.3419297843155,4.87444751956797
14_FALSE_9_5,1369.816667,4,1369,14,FALSE,5,9,0.816667000000052,1.0166670000001,5,TRUE,brake,FALSE,-10.130897,2.765971,-10.506088,0.0169272638888889,2.757248,0.686579093544982,3.60151835565082,1.19264849830136,0.395918358333333,-1.33345514512922,20.3983448810836,4.97690383600935,13.7294973178615,4.55137741817989
14_TRUE_10_5,1682.583333,4,1679.933333,14,TRUE,5,10,2.65000000000009,0.983334000000013,5,TRUE,brake,FALSE,-8.634874,3.842215,-9.018003,-0.0420497161111111,3.844815,0.888120147850638,4.46882426486305,1.62791477666083,0.575236607222222,-0.721174799157303,7.71599649384975,2.31412461787489,13.0781671924717,4.3555907691234
14_TRUE_2_3,580.75,1,577.15,14,TRUE,3,2,3.60000000000002,0.783332999999971,3,TRUE,brake,FALSE,-10.342573,0.940312,-10.725199,0.0157338866666667,0.938833,0.146674296824016,0.897793187555752,0.0788000671468644,0.09004374,-2.93545154916067,6.26809634013811,1.11265102987627,12.1799958689373,3.57611944870928
14_TRUE_4_5,835.15,2,834.066667,14,TRUE,5,4,1.08333299999993,0.699999999999932,5,TRUE,brake,FALSE,-10.310855,1.142293,-10.545469,-0.0218155722222222,1.141406,0.352788045749667,1.4400494564967,0.148947037708848,0.250555158333333,-0.992668235294118,5.72989175445977,1.23896492042704,10.0441375003747,5.0430100762576
14_TRUE_6_3,1095.233333,3,1092.9,14,TRUE,3,6,2.33333299999981,0.733332999999902,3,TRUE,brake,FALSE,-9.888038,1.882353,-10.267341,-0.00395836277777778,1.879401,0.667389630377087,4.20642666290433,1.43915423983805,0.552760203888889,-1.46232919940916,3.03860251375986,0.779756536306185,15.9023587245153,4.64582468448187
17_FALSE_1_3,349.616667,1,348.133333,17,FALSE,3,1,1.48333400000001,2.13333399999999,3,TRUE,brake,TRUE,-10.157323,1.02652,-10.524849,0.743531146666667,1.093787,0.3512558989936,1.66588234278081,0.141779772759344,0.282107063333333,-1.44407265533981,3.37483276309526,1.18884283879646,11.064866980809,8.43905411778262
17_FALSE_3_5,582.55,2,581.2,17,FALSE,5,3,1.34999999999991,2.11666700000001,5,TRUE,brake,FALSE,-9.403402,0.812242,-9.783231,0.0342883794444444,0.443004,0.14761694445674,0.870177116706778,0.104119104182931,0.120326342777778,-1.00862953807947,8.67201233576811,4.19619505529964,12.2195583145478,7.35100010620624
17_FALSE_6_3,1014.233333,3,1012.966667,17,FALSE,3,6,1.26666599999999,1.19999999999993,3,TRUE,brake,FALSE,-9.831686,1.162724,-10.212663,0.0209222561111111,1.16152,0.379385602159803,1.64238329923682,0.0953650196437351,0.259004165555556,-3.25491435731415,5.9782578441103,1.79932374607453,9.8612771213311,7.05603813159201
17_FALSE_7_5,1143.916667,4,1142.433333,17,FALSE,5,7,1.48333400000001,2.25,5,FALSE,steer,FALSE,-9.72346,1.087903,-10.09613,0.0364103183333333,0.639752,0.190393258990027,1.06273094435756,0.147704142613534,0.145031206666667,-1.94891279609544,5.81900979542071,1.6117352824075,12.8429947316725,7.10905144943034
17_TRUE_10_5,1537.066667,4,1535.55,17,TRUE,5,10,1.5166670000001,2.40000000000009,5,TRUE,brake,FALSE,-9.470065,0.810727,-9.845172,-0.00649456444444445,0.910081,0.320291783898953,1.58747090524276,0.155837348754205,0.276051835555556,-1.92665379310345,12.3724595365582,2.95068044289276,9.81817896543129,6.12909885891129
17_TRUE_2_3,445.916667,1,444.683333,17,TRUE,3,2,1.23333400000001,1.69999999999999,3,TRUE,brake,FALSE,-7.981645,0.276,-10.340084,0.0565010861111111,0.275856,0.0841687623728359,0.545045157151177,0.111044106264843,0.0607010733333333,-2.94020582011605,8.76922963374426,5.19431205945412,7.8621868777614,8.40241177049329
17_TRUE_4_5,664.166667,2,662.6,17,TRUE,5,4,1.56666699999994,2.69999999999993,5,TRUE,brake,FALSE,-9.788305,0.925843,-10.158648,0.0587053594444445,0.976251,0.227290439481658,1.12676962158409,0.114255825473172,0.140063044444444,-3.00513317125382,8.33875965599902,3.5006541260765,8.24099373959477,6.76178741425969
17_TRUE_5_3,755.033333,3,753.683333,17,TRUE,3,5,1.35000000000002,1.55000000000007,3,FALSE,steer,FALSE,-7.885785,1.928603,-10.250085,0.069866775,1.928168,0.138763977994057,1.90920785188607,0.114486156867552,0.0952618905555556,-4.21064751912568,10.3757343996368,4.07352199335768,12.5813573274389,7.05805205336124
18_FALSE_4_3,633.983333,1,632.333333,18,FALSE,3,4,1.64999999999998,1.93333399999995,3,TRUE,brake,TRUE,-9.863816,0.392912,-10.242498,0.385885140555556,0.542773,0.169818960680237,1.71206249113914,0.139629162995738,0.140397806111111,-1.85684711152416,13.9105012856904,4.57322045499275,8.08523295533495,5.69920291036523
18_FALSE_6_5,1028.6,2,1027.483333,18,FALSE,5,6,1.11666700000001,1.8833340000001,5,TRUE,brake,FALSE,-10.073501,0.230879,-10.452686,0.0776827433333333,0.214864,0.0812827668532891,0.50811360247325,0.0993976861677981,0.0619090116666667,-2.06914322459893,8.11652673096377,3.19274153106609,8.39374718019114,3.77342306846868
18_FALSE_8_3,1287.916667,3,1286.733333,18,FALSE,3,8,1.18333400000006,1.15000000000009,3,TRUE,brake,FALSE,-10.150921,0.335482,-10.530916,0.0977356455555556,0.333592,0.0702221109313744,0.551837797928012,0.0820000303824672,0.0488674405555556,-4.93597502068966,15.0928335252768,3.5374913877933,17.2293808007109,4.6478805068478
18_FALSE_9_5,1416.983333,4,1416.2,18,FALSE,5,9,0.783332999999857,1,5,TRUE,brake,FALSE,-3.991494,1.705869,-4.37187,0.0916449455555555,1.701897,0.569935770782842,2.49952980322911,1.4564744317222,0.453647579444445,-0.450132163380282,14.5425351197045,3.16413622473042,13.4497400689466,3.27123189358105
18_TRUE_10_5,1845.383333,4,1844.283333,18,TRUE,5,10,1.09999999999991,1.01666699999987,5,TRUE,brake,FALSE,-0.01954,1.515007,-0.399125,-0.0727113205555556,1.51736,0.574971223886067,2.41745952760316,1.61344350775588,0.455485047777778,-0.165549711002786,9.07358836731453,2.77588461186502,17.3338450815396,3.67034567773219
18_TRUE_2_3,552.066667,1,551.3,18,TRUE,3,2,0.766667000000098,0.783333000000084,3,FALSE,steer,FALSE,-3.447106,2.669665,-3.830168,0.0564721938888889,2.669157,0.701180478261269,2.66337318511921,1.32420833948122,0.53496815,-0.415186411053541,13.3580403836449,2.90742439938633,14.7033378395358,3.35654982390949
18_TRUE_4_5,836.3,2,835.316667,18,TRUE,5,4,0.983332999999902,1.01666599999999,5,TRUE,brake,FALSE,-3.549834,1.821479,-3.929267,0.0219609544444444,1.821298,0.484133390689076,1.92998561371569,1.48019010664103,0.359517966111111,-0.529953610722611,12.5321055073104,3.11490191906254,14.6922801266302,6.33271427884539
18_TRUE_6_3,1119.083333,3,1118.233333,18,TRUE,3,6,0.850000000000136,0.983334000000013,3,TRUE,brake,FALSE,-0.110566,2.788925,-0.494673,0.00849214,3.697822,0.780159251967935,3.05139156170938,1.50668887508233,0.457962244444444,-0.252416214607755,15.6302363621331,4.79442675314836,15.2149455662746,4.16685458963849
19_FALSE_1_5,886.516667,1,885.366667,19,FALSE,5,1,1.14999999999998,1.20000000000005,5,TRUE,brake,FALSE,-8.14323,0.85173,-8.517241,-0.00761667222222221,0.851803,0.230726446044504,1.53766638086182,0.112915360743263,0.220237475,-1.74054886225895,6.95103291062875,1.73339893079543,4.1899377472368,3.97560623560305
19_FALSE_2_3,1017.833333,2,1016.85,19,FALSE,3,2,0.983333000000016,0.966667000000029,3,TRUE,brake,FALSE,-9.899665,0.159776,-10.273631,-0.09728,0.159403,0.0409437529406047,0.452381629169696,0.140633381591801,0.0295647622222222,-3.61874724043716,1.57978152269737,1.68758859623478,2.97364159592917,4.71847478205305
19_FALSE_4_5,1255.766667,3,1254.35,19,FALSE,5,4,1.41666700000019,1.58333300000004,5,FALSE,steer,FALSE,-9.907999,2.523797,-10.285151,-0.0928435316666667,2.682303,0.380248586493637,3.97696845194896,0.110215671125982,0.222856709444444,-2.58589256333333,2.21239072196306,1.54874088639866,7.95715293671933,5.72130308004897
19_FALSE_7_3,1802.1,4,1801.466667,19,FALSE,3,7,0.633332999999993,0.683333000000175,3,TRUE,brake,FALSE,-9.775987,0.2562,-10.154846,-0.00395970055555556,0.25931,0.0725790369130887,1.88775704962307,0.136859738751433,0.0529567016666667,-5.04208853053435,9.51030826716584,3.07123823100028,11.5620084921853,5.34976831632912
19_TRUE_1_3,313.433333,1,312.4,19,TRUE,3,1,1.03333300000003,1.16666700000002,3,TRUE,brake,FALSE,-9.990595,1.356439,-10.363482,-1.00292483611111,1.456203,0.147686547859318,52.7682851657222,0.129302723507655,0.0423831483333333,-1.28885871340629,3.30911992869137,2.7198456330987,9.08811055126301,9.49432888099392
19_TRUE_2_5,691.366667,2,690.633333,19,TRUE,5,2,0.733334000000014,1,5,FALSE,steer,FALSE,-9.127269,2.023135,-9.506349,-0.0268385905555556,2.076066,0.440158278503666,2.60479415969416,0.161484923697037,0.290271518333333,-2.5293942345679,6.47577780951681,5.13831832257545,3.60631774245079,3.52267511416517
19_TRUE_4_5,911.566667,3,910.516667,19,TRUE,5,4,1.05000000000007,1.20000000000005,5,FALSE,steer,FALSE,-5.785057,1.870378,-6.16607,0.00283649666666666,1.31005,0.250734418897037,1.20890862653939,0.127360707372578,0.136879246666667,-3.09471759360731,1.61708706875859,1.10532135118204,8.92426718590698,5.54034540617464
19_TRUE_6_3,1171.266667,4,1170.316667,19,TRUE,3,6,0.950000000000045,1.06666599999994,3,FALSE,steer,FALSE,-10.042414,1.498974,-10.420777,-1.00475503722222,1.20023,0.095346718406501,2.52554310709878,0.104904376488522,0.0364034861111111,-1.60115824978317,1.47359597037428,1.76310932133855,10.0355568639033,8.10751945843722
1_FALSE_1_3,352.583333,1,347.433333,1,FALSE,3,1,5.14999999999998,0.966666999999973,3,TRUE,brake,FALSE,-9.719539,1.244646,-10.097743,0.03201178,1.244348,0.360141784390348,1.55759550534173,0.208531436060174,0.250836252222222,-2.6831385513834,2.86366441017697,3.02065513291867,6.36567307166247,7.80371892233942
1_FALSE_3_5,569.716667,2,567.216667,1,FALSE,5,3,2.5,1.04999999999995,5,TRUE,brake,FALSE,-2.490096,0.729564,-2.871777,-0.0111485966666667,0.735966,0.171644156458362,1.18207349810643,0.178574223211907,0.113324526666667,-1.04757215934066,10.8631889875301,3.02577277318184,5.55860689574042,6.40752719085015
1_FALSE_6_3,1016.133333,3,1013.833333,1,FALSE,3,6,2.29999999999995,0.883333999999991,3,TRUE,brake,FALSE,-6.572324,1.589924,-6.9466,0.0137435255555555,1.588437,0.443819096664392,2.33832082371025,0.283819585454827,0.323919017777778,-1.7891785408971,11.2933824393469,3.90184767497535,8.15000043372122,8.01527220359091
1_FALSE_7_5,1146.733333,4,1143.3,1,FALSE,5,7,3.43333299999995,1.5166670000001,5,TRUE,brake,FALSE,-4.771333,0.814117,-5.150648,0.04294315,0.813153,0.284957165256512,1.32035670513455,0.179215137249869,0.201607733333333,-1.03422823389356,9.54611510215273,5.10195573041349,11.9251858573082,5.87656109107932
1_TRUE_10_5,1536.516667,4,1534.45,1,TRUE,5,10,2.06666700000005,1.38333299999999,5,TRUE,brake,FALSE,-5.539873,1.176559,-5.919856,0.0494422311111111,1.169918,0.319991359678394,1.66307168239656,0.299613431873724,0.276095432222222,-1.24222532402235,1.9977775670936,2.69853987397223,6.36526228638274,3.79954180346527
1_TRUE_2_3,437.916667,1,435.6,1,TRUE,3,2,2.316667,1.14999999999998,3,TRUE,brake,FALSE,-9.609353,0.564877,-9.986218,0.0187400577777778,0.565401,0.11016044946069,1.22855861938589,0.103274765046942,0.0532057494444444,-3.67059388541667,1.78013812713996,2.38846160332968,6.89317397689202,7.84578172593221
1_TRUE_4_5,672.733333,2,670.283333,1,TRUE,5,4,2.45000000000005,0.966667000000029,5,TRUE,brake,FALSE,-3.878329,1.382131,-4.252555,-0.03936477,1.381829,0.406341476541446,1.60163456339415,0.222409319809099,0.2935504,-0.841280588156124,3.27111947479155,2.00484199159447,8.54527706523735,7.56553284119423
1_TRUE_5_3,763.016667,3,761.383333,1,TRUE,3,5,1.63333399999999,1.01666699999998,3,TRUE,brake,FALSE,-9.664712,0.911914,-10.042365,0.039385045,0.91264,0.167878247435102,1.4000362586515,0.265085099208714,0.0981086555555556,-2.97372733541667,1.89275653393448,2.08922482829098,9.77697200711966,8.14574935389679
21_FALSE_1_3,290.233333,1,288.1,21,FALSE,3,1,2.13333299999999,1.5,3,TRUE,brake,FALSE,-8.185183,0.646766,-10.545971,-0.00751828222222223,0.64499,0.192417839567304,1.97382191967412,0.209231881838649,0.133139722222222,-2.01869332361111,16.0654334600674,7.82115525833464,11.9531822547864,7.77450591928444
21_FALSE_3_5,507.9,2,504.766667,21,FALSE,5,3,3.13333299999999,0.883332999999993,5,TRUE,brake,FALSE,-9.742875,1.041951,-10.070554,0.0302665566666667,1.042618,0.264991951843401,1.76532910637299,0.230581226265369,0.208946656666667,-2.23485298230089,21.0387520863501,7.54292366295843,11.6775625031612,6.91680967646867
21_FALSE_6_3,946.066667,3,943.483333,21,FALSE,3,6,2.58333400000004,1,3,TRUE,brake,FALSE,-9.858848,4.930786,-10.236554,0.0129253855555556,4.977903,0.777400051060527,19.45276630167,0.447441644521489,0.419305693333333,-2.58749020121951,14.3212452763861,8.32457837304229,13.0384463580091,8.07248605985733
21_FALSE_7_5,1074.633333,4,1072.95,21,FALSE,5,7,1.68333299999995,1.18333299999995,5,TRUE,brake,FALSE,-8.850888,0.949915,-9.228652,0.0104274177777778,0.949552,0.269360625308591,1.43056227670153,0.30357874921261,0.201032736666667,-1.59348797186701,21.301116426474,6.22400783681136,13.1410163235818,5.86687518236639
21_TRUE_10_5,1576.2,4,1573.933333,21,TRUE,5,10,2.2666670000001,1.29999999999995,5,TRUE,brake,FALSE,-7.33277,1.436398,-7.710223,0.00259459944444444,1.440456,0.390126201450813,2.12402558868233,0.334765652355167,0.28238175,-1.13323154668471,10.7162567717809,3.86787030777172,9.89104192473002,6.30811596617746
21_TRUE_2_3,460.183333,1,458.783333,21,TRUE,3,2,1.39999999999998,2.04999999999995,3,TRUE,brake,TRUE,-7.951179,0.741336,-10.303723,0.594121383888889,0.740853,0.161326688587623,2.23026316630908,0.156114676235055,0.0983157316666667,-1.63718291780822,16.9169227682317,5.22357158728244,17.1642911235748,9.18791800935602
21_TRUE_4_5,695.633333,2,694.383333,21,TRUE,5,4,1.25,1.41666699999996,5,TRUE,brake,FALSE,-5.982515,1.178982,-6.359622,-0.00331583611111111,1.177279,0.382471694097968,2.13197115740259,0.17964078747271,0.336987789444444,-0.81954924744898,10.3570691709905,4.79223441781714,7.1278605151355,6.84287160224168
21_TRUE_5_3,786.566667,3,785.466667,21,TRUE,3,5,1.10000000000002,1.14999999999998,3,TRUE,brake,FALSE,-9.753062,2.182338,-10.130305,0.0863937072222222,2.182308,0.442470522181092,1.71394171205706,0.236812644251077,0.205812436666667,-2.86658733554084,7.38874210110673,8.09776794547617,8.01987905873198,7.20343625358981
23_FALSE_1_5,405.016667,1,403.383333,23,FALSE,5,1,1.63333399999999,1.26666699999998,5,TRUE,brake,FALSE,-9.647316,0.653936,-10.028739,-0.0239911322222222,0.65395,0.270335763643824,1.64097786029109,0.147659040933027,0.259356578333333,-2.1844869375,10.6322538961512,3.20074986344229,10.5321947717113,4.09093882830475
23_FALSE_2_3,535.933333,2,534.866667,23,FALSE,3,2,1.06666599999994,0.883332999999993,3,TRUE,brake,FALSE,-9.961383,0.21819,-10.335523,-0.063402875,0.218568,0.0672661238293524,1.64354729993766,0.169413240043558,0.0542099472222222,-6.10014999593496,8.10743412504744,3.03635136675996,12.393561634132,3.66421378274957
23_FALSE_4_5,753.466667,3,752.166667,23,FALSE,5,4,1.30000000000007,1.66666600000008,5,TRUE,brake,FALSE,-10.173286,1.064032,-10.552997,-0.0446894811111111,1.063998,0.325586916916611,1.56123142660337,0.252798439177239,0.263110702222222,-1.44894082051282,9.34851386523811,3.49082679874031,9.17408085644982,3.14771072809663
23_FALSE_7_3,1221.816667,4,1221,23,FALSE,3,7,0.816667000000052,0.833333000000039,3,TRUE,brake,FALSE,-9.97064,8.094497,-10.35509,-0.21912323,7.176271,0.690685065275705,72.0475075542687,0.654472439666172,0.309226871111111,-5.36883444518272,9.70461561744835,4.10627971398055,11.4230172427604,4.2611208669388
23_TRUE_1_3,273.2,1,271.866667,23,TRUE,3,1,1.33333299999998,1.58333299999998,3,TRUE,brake,FALSE,-8.001668,1.486491,-10.364165,0.0503529866666667,0.904602,0.186427788980552,14.1443356762133,0.52471548643123,0.120141397222222,-5.16293813214286,3.34718899107252,2.67145514435798,11.3754883214833,5.02574929948558
23_TRUE_2_5,402.316667,2,401.333333,23,TRUE,5,2,0.983334000000013,1.08333400000004,5,TRUE,brake,FALSE,-10.439251,0.595718,-10.820992,-0.0934117138888889,0.596731,0.118270436344411,0.931237872098337,0.210311980466694,0.0945766788888889,-2.08245097175141,1.58603350395288,2.24061419070401,10.8753248062123,3.90875984042069
23_TRUE_4_5,621.3,3,620.266667,23,TRUE,5,4,1.03333299999997,0.883332999999993,5,TRUE,brake,FALSE,-10.210143,1.15106,-10.443849,-0.0587115988888889,1.151063,0.290512853062333,1.68497758154579,0.178528341185447,0.238820381111111,-2.41530898039216,1.96136453168171,1.98723788039545,8.99247157467361,3.63857785094888
23_TRUE_6_3,880.566667,4,879.633333,23,TRUE,3,6,0.933334000000059,1.25,3,FALSE,steer,FALSE,-9.861316,2.215569,-10.241767,-0.119376598888889,2.681043,0.324812571111002,59.698664471809,0.528311240440618,0.214729782222222,-4.62950323579546,6.33595975278453,1.93955041456148,11.1205321722868,4.22729097826924
24_FALSE_10_3,1436.95,4,1435.65,24,FALSE,3,10,1.29999999999995,0.849999999999909,3,TRUE,brake,FALSE,-3.034706,5.095599,-3.415594,-0.00568372111111111,5.100005,1.0263627557866,5.12044852899117,0.806463958903971,0.59487815,-0.531862128526646,11.1048373117611,4.99447629449017,14.8065061951195,6.89679279451438
24_FALSE_2_5,366.183333,1,364.683333,24,FALSE,5,2,1.5,1.21666699999997,5,TRUE,brake,FALSE,-4.306712,1.220055,-4.688314,-0.0144334622222222,1.219996,0.513633571752681,2.36954317318926,1.27952117368042,0.416758807222222,-0.853216858597285,3.80748278617789,2.55461452925744,11.469333290496,4.14774239859081
24_FALSE_4_3,594.3,2,592.716667,24,FALSE,3,4,1.58333299999993,1.18333299999995,3,TRUE,brake,TRUE,-9.804819,1.302362,-10.184257,0.521848007222222,0.900511,0.210455130970975,6.47548861119888,0.318701546491334,0.139881371666667,-2.2385511,14.640393395133,4.77024780150025,9.13897852325095,5.87224592527823
24_FALSE_6_5,853.416667,3,851.116667,24,FALSE,5,6,2.29999999999995,1.16666599999996,5,TRUE,brake,FALSE,-4.099532,1.155728,-4.473647,0.0125999933333333,1.260911,0.363659381883189,1.70297018610392,1.15955980484952,0.234864717777778,-0.530146461615155,7.64919702097064,3.67927226449286,8.62348022923365,7.05494255523025
24_TRUE_1_5,296.75,1,295.133333,24,TRUE,5,1,1.61666700000001,1.05000000000001,5,TRUE,brake,FALSE,-2.84807,1.732705,-3.236653,0.0269800338888889,0.927276,0.320424227239756,1.32768932249371,1.23208658611421,0.24586065,-0.533618143929912,1.80138624474403,2.25668936540659,10.5460806786293,5.44890290739063
24_TRUE_7_3,1229.133333,2,1227.7,24,TRUE,3,7,1.43333299999995,1.21666699999992,3,TRUE,brake,FALSE,-2.00933,4.109595,-2.389206,0.0276988711111111,4.106929,0.880699137267942,3.68207169178202,1.00274075630125,0.593363888333333,-0.302833897546898,3.36597665669932,2.75204327537877,8.80184052133603,5.99083661724493
24_TRUE_8_5,1379.066667,3,1375.533333,24,TRUE,5,8,3.53333399999997,1.25,5,TRUE,brake,FALSE,-0.031172,2.048706,-0.412621,0.0534976433333333,2.04657,0.659473260870043,2.64722451604594,1.06641446678809,0.446061802777778,-0.213237995971803,2.80390969358666,3.62661371851335,8.72861465471079,6.0863716819844
25_FALSE_1_3,323.316667,1,317.883333,25,FALSE,3,1,5.433334,0.75,3,TRUE,brake,FALSE,-9.958914,0.777232,-10.336227,-0.02413671,0.777406,0.284236681130252,1.83388608154622,0.111837132618117,0.253090591111111,-2.60363229447853,5.29313603622411,0.983962298082231,5.04292663308371,3.5129230371199
25_FALSE_3_5,536.716667,2,535.316667,25,FALSE,5,3,1.39999999999998,0.766665999999987,5,TRUE,brake,FALSE,-10.185286,5.806787,-10.4427,-0.287086409444445,6.737979,0.718846421139904,38.6822105651936,0.473888079909848,0.255815756666667,-3.23250709516129,7.46440913809755,2.8199824772024,7.40335632948666,3.00022026459714
25_FALSE_6_3,978.883333,3,977.316667,25,FALSE,3,6,1.56666599999994,0.883332999999993,3,TRUE,brake,FALSE,-10.14669,0.643214,-10.524896,0.0271080688888889,0.643817,0.150228464427319,0.936063252311422,0.0675489876937151,0.0973043661111111,-3.92103534226191,5.3947556466761,1.10246578830651,7.26412530551688,5.72082117091035
25_FALSE_7_5,1108.1,4,1106.783333,25,FALSE,5,7,1.31666699999982,1.33333399999992,5,FALSE,steer,FALSE,-9.815676,3.385757,-10.199636,-0.00860870611111112,4.294474,0.516896767541916,6.19883418381741,0.149628831501821,0.232654949444444,-1.86781834375,4.49171348697689,1.32405120230803,6.7699494869582,5.65754594956921
25_TRUE_10_5,1727.65,4,1726.616667,25,TRUE,5,10,1.03333300000008,0.916666000000077,5,TRUE,brake,FALSE,-6.655928,1.196937,-7.017517,-0.0618136194444444,1.502689,0.28279854919161,1.41816131575704,0.0885444839094406,0.172761147222222,-0.851796715328467,5.19715715444476,1.19471983526576,3.0863131678784,5.61396653920812
25_TRUE_2_3,627.333333,1,626.666667,25,TRUE,3,2,0.666666000000078,0.866666000000009,3,TRUE,brake,FALSE,-9.870253,0.475001,-10.252198,0.0136868855555556,0.475131,0.130020399282179,1.85367321589554,0.103779331747205,0.0842050311111111,-3.34794992892157,5.51942173585828,1.22576831365415,7.56507984856257,6.42273006601725
25_TRUE_4_5,844.283333,2,843.366667,25,TRUE,5,4,0.916665999999964,0.833333000000039,5,TRUE,brake,FALSE,-9.886757,1.239585,-10.161185,0.00885417000000001,1.237893,0.341976635227332,1.46479258435285,0.0849528758858026,0.187254448888889,-1.32659710535714,7.18110613635987,1.08974553348178,10.6469428654945,3.9524417389425
25_TRUE_5_3,935.583333,3,934.45,25,TRUE,3,5,1.13333299999999,0.849999999999909,3,TRUE,brake,FALSE,-10.070978,7.948742,-10.448992,-0.0583375488888889,7.95091,1.50507950155195,12.0777228119496,1.91207543982273,0.605581229444445,-0.988995173913044,5.79007003699645,1.32985871137091,11.8296258404895,5.29694669600958
26_FALSE_4_3,641.116667,1,640.016667,26,FALSE,3,4,1.10000000000002,1.25,3,TRUE,brake,FALSE,-6.913341,8.394599,-7.29416,-0.0173682066666667,8.394259,1.82204970286961,19.9183755067813,1.51263970788901,0.783390780555556,-3.22718868965517,13.6276342728259,3.20003299205634,10.999661331305,3.32663596619447
26_FALSE_6_5,984.35,2,983.55,26,FALSE,5,6,0.800000000000068,0.950000000000045,5,TRUE,brake,FALSE,-9.732184,1.1959,-10.114188,-0.0553312888888889,1.199637,0.42070862731669,1.90313815911929,0.113609406150317,0.333871805555556,-1.13399226685007,11.0134807938829,3.11445629943718,9.8545630179984,3.87642252019089
26_FALSE_8_3,1249.383333,3,1247.983333,26,FALSE,3,8,1.40000000000009,1.5,3,TRUE,brake,FALSE,-8.363381,6.362653,-10.722447,-0.245521154444444,6.367364,0.903941010355806,231.60595427943,0.333350521070963,0.463446305,-4.94500493523316,8.22968163820181,2.77705406865801,12.7991749787429,4.12614209524054
26_FALSE_9_5,1404.316667,4,1403.066667,26,FALSE,5,9,1.25,0.700000000000046,5,TRUE,brake,FALSE,-7.7586,1.045837,-7.958556,-0.0195839605555556,1.041684,0.217185129823405,1.0835050875094,0.164068734968526,0.140375341666667,-2.3901916875,11.430196150071,2.75082504279409,9.51304761298164,4.3178322532142
26_TRUE_10_5,1643.866667,4,1641.7,26,TRUE,5,10,2.16666699999996,0.833333000000039,5,TRUE,brake,FALSE,-10.10733,0.410989,-10.357775,-0.00761448222222222,0.40701,0.132728151255015,1.0353618594965,0.0831441770019141,0.107139387222222,-3.42103069433962,2.48835489542498,1.36276372834892,10.3088909861279,3.08702481281559
26_TRUE_2_3,554.7,1,553.6,26,TRUE,3,2,1.10000000000002,0.799999999999955,3,TRUE,brake,FALSE,-9.750432,1.439793,-10.129286,0.0505547377777778,1.438861,0.351642426125621,1.60811718597382,0.128012780901385,0.202148268333333,-6.30474057142857,2.70895646257295,1.62874049257213,9.04864671233812,2.57511324536788
26_TRUE_4_5,812.916667,2,811.333333,26,TRUE,5,4,1.58333399999992,0.783333999999968,5,TRUE,brake,FALSE,-8.003174,1.289246,-8.248865,0.0129990627777778,1.289119,0.341215440759704,1.56809546865036,0.0843662998530788,0.27664092,-1.19491893836978,6.08318554074927,1.92833002624939,8.66985093818941,3.59036390268934
26_TRUE_6_3,1075.75,3,1074.266667,26,TRUE,3,6,1.4833329999999,0.766665999999987,3,TRUE,brake,FALSE,-9.925887,0.672391,-10.305256,0.0144025161111111,0.673178,0.23630529392313,1.61864261806616,0.131052817921365,0.213830005,-6.07032598048781,4.16513585422919,1.83275035535912,7.86603934806463,3.28486649845341
27_FALSE_1_5,573.616667,1,572.433333,27,FALSE,5,1,1.18333400000006,1.06666700000005,5,TRUE,brake,FALSE,-8.00416,0.233613,-8.382774,0.0500029533333334,0.23364,0.0757864460412053,0.461800614895627,0.0854716158836091,0.0601748827777778,-1.19314222202797,7.57670546625607,2.11670667091333,11.6210816777489,2.38865844312204
27_FALSE_2_3,705.333333,2,703.916667,27,FALSE,3,2,1.41666600000008,1.5,3,TRUE,brake,FALSE,-8.10924,0.945275,-10.470058,0.0537237516666667,0.945629,0.320140560486642,3.20163820824671,0.215603019113019,0.275129591666667,-2.7034511543514,8.64595087453667,1.97176595186813,12.0028441798926,2.33731856217813
27_FALSE_4_5,923.1,3,922.183333,27,FALSE,5,4,0.916667000000075,1,5,FALSE,steer,FALSE,-9.785618,1.903612,-10.174471,-0.0264031038888889,1.614559,0.273391475725595,1.73267162509522,0.132745989588867,0.144816105555556,-1.28750067924528,8.13792945938087,1.99525549591071,11.2387353981608,2.18948469462583
27_FALSE_7_3,1403.816667,4,1402.333333,27,FALSE,3,7,1.48333400000001,1.51666699999987,3,FALSE,steer,FALSE,-8.043389,1.476641,-10.407178,0.0947647522222222,1.479614,0.415002906405884,2.80986262901717,0.154035309272642,0.261211283888889,-3.1808058250497,10.9757459178044,1.77644251578914,10.735414677941,2.25678820722781
27_TRUE_1_3,280.7,1,279.183333,27,TRUE,3,1,1.51666699999998,1.51666699999998,3,FALSE,steer,TRUE,-7.900494,1.110917,-10.261625,0.463447216666667,1.110742,0.353828659202993,1.51582586691153,0.116881461317861,0.246472725,-1.39678354747774,9.70176220711516,2.42138505963675,9.38566131264337,5.80730344142136
27_TRUE_2_5,422.383333,2,421.383333,27,TRUE,5,2,1,0.916667000000018,5,TRUE,brake,FALSE,-10.218168,0.362482,-10.565579,0.0453117344444445,0.364172,0.110391578168369,0.711737791838259,0.0747530014536348,0.0838483922222222,-1.97202279295154,4.42856170333454,2.32456852857509,5.6564826767904,3.95559060047327
27_TRUE_4_5,643.066667,3,641.933333,27,TRUE,5,4,1.1333340000001,1.28333400000008,5,TRUE,brake,FALSE,-3.513475,0.842037,-3.887206,0.100073356666667,0.841998,0.275428865655597,1.47056212433268,0.118596733324261,0.248025082777778,-0.97741133,8.47602315244003,2.70842314270246,9.1639258728149,3.87352810207368
27_TRUE_6_3,905.233333,4,903.9,27,TRUE,3,6,1.33333300000004,1.55000000000007,3,TRUE,brake,FALSE,-7.944526,4.594351,-10.307895,0.00990391277777776,4.800283,0.355751582084809,36.4842680801774,0.241860935240541,0.228515240555556,-2.155061825,9.18732483304526,2.98689154633767,9.38260581200174,4.17395036341057
29_FALSE_1_3,327.2,1,325.8,29,FALSE,3,1,1.39999999999998,1.183333,3,TRUE,brake,TRUE,-9.832504,0.699164,-10.205885,0.64122449,0.698798,0.136723512911417,0.946818434180523,0.159790590683346,0.0755745888888889,-2.25501120401338,11.7005776540182,2.60713691501653,5.39110305866424,4.92915524138304
29_FALSE_3_5,545.633333,2,543.333333,29,FALSE,5,3,2.29999999999995,1.44999999999993,5,TRUE,brake,FALSE,-5.335303,3.256668,-5.712559,0.0174704366666667,3.255957,0.874985895084128,3.93638477735406,1.49327814656401,0.630930051111111,-0.737930455670103,10.7642446367772,2.64360129631794,13.0620033951455,4.76940290864773
29_FALSE_6_3,993.766667,3,991.233333,29,FALSE,3,6,2.53333399999997,1.46666700000003,3,TRUE,brake,FALSE,-8.026715,0.214887,-10.386723,0.0464340066666667,0.214845,0.0806891275065058,0.634331396178588,0.0957745273552533,0.0617661933333333,-3.12393018306636,3.09006839676192,1.08029866982631,2.68925684644587,5.18174153374683
29_FALSE_7_5,1137.783333,4,1120.7,29,FALSE,5,7,17.083333,1.16666699999996,5,TRUE,brake,FALSE,-5.792533,1.015292,-6.166377,0.0282727105555555,1.015924,0.345660118517459,1.86412891300101,0.221860179856966,0.314756061666667,-0.856764490909091,8.54259532485529,2.48667729689342,5.39469867246169,3.23545439923106
29_TRUE_10_5,1549.733333,4,1548.466667,29,TRUE,5,10,1.26666599999999,1.80000000000018,5,TRUE,brake,FALSE,-4.998383,0.745035,-5.373407,0.0137898111111111,0.659816,0.157403987725556,0.812867593333178,0.112188096172078,0.116883781666667,-0.866982062909568,2.13890097708925,2.9749359413222,9.9933900164204,4.49149610440494
29_TRUE_2_3,422.983333,1,421.6,29,TRUE,3,2,1.38333299999999,2.46666699999997,3,TRUE,brake,TRUE,-9.416564,0.693665,-9.787664,0.83311582,0.645677,0.135700295687766,3.73125627770091,0.133678298755467,0.0969030327777778,-1.02636057692308,1.70517553454531,1.86085210491265,3.58168446799698,5.34134651327305
29_TRUE_4_5,662.133333,2,660.85,29,TRUE,5,4,1.28333299999997,1.93333299999995,5,TRUE,brake,FALSE,-6.102442,0.876609,-6.482912,0.000163194999999996,0.877657,0.305596570100695,1.828740586994,0.172237521157907,0.276119095,-0.899203831800263,1.24798040797809,1.44787807789101,9.62842676044777,4.49517232880288
29_TRUE_5_3,753.25,3,751.933333,29,TRUE,3,5,1.31666700000005,1.73333400000001,3,TRUE,brake,TRUE,-9.906086,1.613866,-10.28373,0.694008354444445,1.53301,0.418121370095435,1.57706846055639,0.174789410806529,0.229081733888889,-1.10621437719298,1.50712238380754,1.9503808439633,5.5996580947379,4.65042503852932
2_FALSE_4_3,661.316667,1,660.416667,2,FALSE,3,4,0.900000000000091,2.03333300000008,3,FALSE,steer,TRUE,-3.014714,1.036904,-2.907466,0.916335468333333,0.528057,0.117686923045165,2.41925193224669,0.187360187145745,0.0826300294444445,-0.767827234042553,11.5676724832718,10.4483619975865,9.19553187246838,6.46686782363829
2_FALSE_6_5,1021.35,2,1020.2,2,FALSE,5,6,1.14999999999998,2.03333299999997,5,FALSE,steer,FALSE,-9.412118,0.999045,-9.791498,0.0238062772222222,1.409527,0.276381514495968,1.28483761810502,0.0744023717260088,0.131072139444444,-1.76951319565217,6.48844997470769,1.10462376416614,11.2196029932436,6.30034372152104
2_FALSE_8_3,1281.183333,3,1279.966667,2,FALSE,3,8,1.21666600000003,1.46666600000003,3,TRUE,brake,TRUE,-9.975948,0.47376,-10.316922,0.619522413333333,0.476015,0.0827651563485371,0.502546366367283,0.110244633450705,0.0444139011111111,-1.66178389168766,16.0454383532218,3.85809143726768,9.0798270091604,7.35603209980217
2_FALSE_9_5,1410.783333,4,1409.433333,2,FALSE,5,9,1.35000000000014,1.60000000000014,5,TRUE,brake,FALSE,-9.554052,1.233994,-9.93462,0.0357913777777778,1.243618,0.337969174600066,1.20726244099833,0.2416872200578,0.208536328333333,-1.25457917571885,10.8354558878086,5.4158514002234,13.804872992671,4.92162235956705
2_TRUE_10_5,1864.516667,4,1863.3,2,TRUE,5,10,1.21666700000014,1.16666699999996,5,TRUE,brake,FALSE,-4.064961,0.670263,-4.443004,0.00277095277777777,0.670191,0.237346558772241,1.44419883365771,0.0938029728840436,0.218669612777778,-0.825176723684211,5.26503986908331,4.80533532401041,6.83882214351502,5.1197454951193
2_TRUE_2_3,794.233333,1,793.05,2,TRUE,3,2,1.18333300000006,1.25,3,TRUE,brake,FALSE,-9.929331,1.234172,-10.306526,0.0627005033333333,1.234347,0.333640346922676,1.12672489250297,0.149667205185393,0.155012256666667,-4.45549746333333,5.3750981484947,5.21093083890422,8.60764022217513,4.07484089120644
2_TRUE_4_5,1051.633333,2,1050.283333,2,TRUE,5,4,1.34999999999991,1.44999999999982,5,TRUE,brake,FALSE,-4.982374,1.202946,-5.363359,0.0160591566666667,1.517663,0.455744665937397,1.59483411832915,0.157033971048935,0.347534706111111,-1.09241703151862,6.67437196418048,1.45508279506366,6.64869509423319,3.15268620380562
2_TRUE_6_3,1310.733333,3,1309.483333,2,TRUE,3,6,1.25,1.10000000000014,3,TRUE,brake,FALSE,-9.768094,1.16784,-10.148245,0.0703341888888889,1.168218,0.41100422118822,1.42548008246539,0.179102719624666,0.282150345555556,-2.421515731569,3.37164429555176,1.52749196469165,6.36469619160641,4.2497599662778
31_FALSE_1_5,264.866667,1,263.45,31,FALSE,5,1,1.41666700000002,1.28333300000003,5,TRUE,brake,FALSE,-10.429805,0.240926,-10.80755,0.0380313294444444,0.240211,0.103034381608187,0.540239917697642,0.174121220477051,0.0823004983333333,-1.21257946494993,18.0709907397938,3.74814464772753,9.27678605911398,4.74767311998825
31_FALSE_2_3,396.033333,2,394.933333,31,FALSE,3,2,1.10000000000002,1.10000000000002,3,TRUE,brake,FALSE,-10.105167,4.030378,-10.482734,0.0738345672222222,4.030632,0.718262125279924,25.5889730396342,0.377334126119439,0.504234331111111,-2.92248088814318,12.7676232061605,3.11142098276584,15.4575136299179,3.75045457450982
31_FALSE_4_5,612.983333,3,612.05,31,FALSE,5,4,0.933333000000061,1.15000000000009,5,TRUE,brake,FALSE,-9.761611,2.413508,-10.148345,0.00548915222222222,3.472686,0.539683683782972,5.06077512386019,0.295851164325437,0.315436863888889,-1.31998916157205,13.3133971499293,5.83748768120195,11.9241345233,5.03040258454256
31_FALSE_7_3,1095.383333,4,1094,31,FALSE,3,7,1.38333299999999,1.25,3,TRUE,brake,FALSE,-10.160733,2.959847,-10.533909,-0.0218162511111111,2.961214,0.428026500517542,27.1091853473415,0.151961326962785,0.235480634444444,-2.0973295910828,14.2318653220383,3.2620596604899,7.64967982015389,4.49967484267603
31_TRUE_1_3,258.983333,1,257.966667,31,TRUE,3,1,1.01666600000004,1.20000000000005,3,FALSE,steer,FALSE,-9.72572,5.503873,-10.111884,0.046480635,4.58691,0.358608601785477,12.3308856825662,0.281138945818027,0.224880395,-2.01139640049444,5.26302662688522,3.62817882133634,9.21197341779199,4.76269875143822
31_TRUE_2_5,387.433333,2,387.433333,31,TRUE,5,2,0,1.38333399999999,5,TRUE,brake,FALSE,-10.02337,2.172555,-10.403857,0.0269521877777778,2.173338,0.512873815742724,2.07738777399888,0.167230417801204,0.29991191,-1.65708843320849,6.49529513623037,1.74744274001292,8.52238424689711,4.73234452480631
31_TRUE_4_5,608.916667,3,607.616667,31,TRUE,5,4,1.29999999999995,1.18333299999995,5,TRUE,brake,FALSE,-9.711506,1.042262,-10.093165,-0.00394603277777778,1.042264,0.33510857941411,1.86187673828691,0.117247622691519,0.303450338888889,-1.33340754279015,10.6390576672119,2.58834654430964,14.0830007232539,5.0890687960454
31_TRUE_6_3,868.3,4,867.25,31,TRUE,3,6,1.04999999999995,1.14999999999998,3,TRUE,brake,FALSE,-9.874791,1.48432,-10.258514,0.0782248638888889,1.690557,0.3325479063434,13.4274122090249,0.401561568107296,0.236955687777778,-2.49593720661157,12.0761524338377,3.1227914390216,6.73925818997904,3.74019891276565
32_FALSE_10_3,1435.766667,4,1434.5,32,FALSE,3,10,1.2666670000001,1.96666699999992,3,TRUE,brake,TRUE,-9.896993,0.210556,-10.270185,0.584878458333333,0.239335,0.054752070173351,1.02657288583853,0.307228853041465,0.0400458177777778,-1.31494341878669,6.660873757239,1.03657923473639,11.2569474724396,5.54421633574339
32_FALSE_2_5,393.55,1,391.883333,32,FALSE,5,2,1.66666700000002,3.15000000000003,5,TRUE,brake,FALSE,-9.812397,1.044496,-10.185893,0.0141737066666667,1.31273,0.443782651471944,1.63238377615761,0.108106935685486,0.32874823,-1.63653471253823,8.42541109124013,1.27132836956974,3.69903960504414,5.58418033689606
32_FALSE_4_3,612.733333,2,611.45,32,FALSE,3,4,1.28333299999997,1.68333299999995,3,TRUE,brake,FALSE,-7.930282,1.175463,-10.29551,0.108016472777778,0.874879,0.205257443416087,9.74797190946123,0.382713959691774,0.146830266111111,-2.89061605335968,3.76579896812095,4.22077967263187,9.47704207845685,4.54447048030015
32_FALSE_6_5,870.566667,3,869.183333,32,FALSE,5,6,1.3833340000001,1.86666700000001,5,TRUE,brake,FALSE,-7.211224,1.043605,-7.596385,0.0325701794444444,1.484667,0.276754556401086,1.51685056823233,0.164766419457612,0.112197185555556,-1.39256108095952,20.0378012220104,2.1437894275907,4.94035142795107,5.97721665676166
32_TRUE_10_3,1694.716667,4,1694.716667,32,TRUE,3,10,0,1.36666600000012,3,TRUE,brake,FALSE,-9.58861,0.460144,-10.185611,0.00785739333333333,0.457867,0.0845135592742803,0.812999229713074,0.136254548084127,0.0695224144444445,-2.35459072555746,2.43182189756273,0.693675125746477,3.69979726847416,3.56169520482009
32_TRUE_1_5,426.633333,1,426.633333,32,TRUE,5,1,0,1.55000000000001,5,TRUE,brake,FALSE,-2.620685,1.145639,-3.007731,0.05508354,1.170248,0.290915263634439,1.33511660902934,0.291756440800424,0.226924893333333,-0.820960634026928,1.62754714264142,0.932404825215596,2.79683870723094,4.19257104213547
32_TRUE_7_3,1345,2,1345,32,TRUE,3,7,0,1.2666670000001,3,TRUE,brake,FALSE,-9.75751,0.828615,-10.137266,0.0774257222222222,0.828551,0.0933300867985519,0.603965932099898,0.167107273318066,0.0513051911111111,-2.84324908249497,2.09106399588654,0.608801445926286,3.69455456500514,5.45585030232485
32_TRUE_8_5,1474.466667,3,1474.466667,32,TRUE,5,8,0,1.48333300000013,5,TRUE,brake,FALSE,-2.984435,1.322017,-3.361656,0.0400218811111111,1.332839,0.313337867406452,1.82219318137279,0.204297381349216,0.272206375555556,-0.894915175412294,1.47815391030621,0.540211128389959,3.11056517299538,3.98323058923725
33_FALSE_1_3,347.766667,1,346.383333,33,FALSE,3,1,1.38333399999999,1.08333399999998,3,TRUE,brake,FALSE,-10.144781,0.592518,-10.522176,0.0783064277777778,0.592066,0.181992650356673,1.52694231551434,0.173292519276679,0.172930968333333,-4.1971386377709,11.5185404184469,4.16311571797493,10.3501708266528,5.40412548759033
33_FALSE_3_5,564.116667,2,563.35,33,FALSE,5,3,0.766666999999984,0.899999999999977,5,TRUE,brake,FALSE,-8.014852,0.802501,-8.370729,-0.00730791666666666,0.903474,0.168303507668371,1.13425068324379,0.148402895699513,0.0752313888888889,-1.48349672442589,15.5745480519729,2.43481241511061,7.49469690268156,3.635256865606
33_FALSE_6_3,1001.533333,3,1000.55,33,FALSE,3,6,0.983333000000016,0.916667000000075,3,TRUE,brake,FALSE,-9.934163,1.156941,-10.308217,0.0260488244444444,1.157028,0.359620017264478,1.42918432794593,0.137961157835426,0.209114114444444,-4.47862086710964,13.2612523280155,2.80810425568551,6.39820044720772,3.1975703776506
33_FALSE_7_5,1130.983333,4,1130.016667,33,FALSE,5,7,0.966665999999805,1.14999999999986,5,TRUE,brake,FALSE,-7.135232,0.697338,-7.512887,0.0440300661111111,0.786741,0.166774203449548,1.03835546580836,0.240048882517779,0.0964191738888889,-1.02866489198606,9.3646704523438,2.68622199728939,6.34577253309675,3.59978315517969
33_TRUE_10_5,1511.45,4,1510.316667,33,TRUE,5,10,1.13333299999999,1.04999999999995,5,TRUE,brake,FALSE,-5.207785,0.931988,-5.581789,-0.0645070661111111,0.925986,0.286168500748383,1.1449905541775,0.157993899001592,0.178823357777778,-1.34124172043011,7.59173472873697,2.853555171568,11.9592753073725,4.05356712983515
33_TRUE_2_3,427.883333,1,426.483333,33,TRUE,3,2,1.39999999999998,0.983333999999957,3,TRUE,brake,FALSE,-9.777091,0.224609,-10.150975,0.0194697944444444,0.223731,0.0742294232994696,0.706534251912855,0.142454828904709,0.0546709111111111,-3.13496640116279,20.6537504224085,4.53216436210197,13.6696405627338,5.53840731797175
33_TRUE_4_5,643.65,2,643.583333,33,TRUE,5,4,0.0666669999999385,1.08333399999992,5,TRUE,brake,FALSE,-10.033396,0.283176,-10.413382,0.05594925,0.283979,0.0848927131607635,0.639870572326838,0.0945556403307432,0.0627901583333333,-3.51300095673077,9.62910122791968,2.73046204790125,11.1416816787356,3.96874055119301
33_TRUE_5_3,735.933333,3,734.666667,33,TRUE,3,5,1.26666599999999,0.866666000000009,3,TRUE,brake,FALSE,-10.063102,0.577503,-10.441275,0.0242801722222222,0.568275,0.082116608964975,1.05506650916824,0.108368678473866,0.0578797405555556,-3.12622312995595,11.2055981016612,3.89164917503351,16.0225487484855,4.35176556828009
34_FALSE_4_3,667.65,1,665.883333,34,FALSE,3,4,1.76666699999998,2.75,3,FALSE,steer,TRUE,-0.00178499999999993,5.417985,-2.338724,0.797670337222222,5.41738,0.380868210188197,10.5800599078176,0.259632159326832,0.0753469072222222,-0.927818192307692,3.3445054958562,2.88596162223623,7.9586257446195,6.46361541506467
34_TRUE_2_3,494.083333,1,492.583333,34,TRUE,3,2,1.5,1.83333400000004,3,FALSE,steer,FALSE,-0.00310600000000028,8.34791,-2.352888,-0.0756224277777778,8.34758,2.20895155632318,10.3190482930634,1.21861414435142,1.069386265,-0.41068926076555,2.03205383091574,0.739981999587783,5.62261009439537,2.54334474659546
35_FALSE_1_5,346.566667,1,346.566667,35,FALSE,5,1,0,2.03333300000003,5,TRUE,brake,FALSE,-9.720472,0.964226,-10.099475,0.038541785,0.964163,0.320955535465393,1.61916396327446,0.172625623952815,0.257620161666667,-1.51769868326693,14.6890935009511,3.86678101899976,16.2813404310756,6.50279705733538
35_FALSE_2_3,478.05,2,478.05,35,FALSE,3,2,0,1.03333299999997,3,FALSE,steer,FALSE,-9.681119,0.258047,-10.062576,-0.00100231277777778,0.257684,0.0611296433023031,0.449540391425448,0.179160675575094,0.0396691838888889,-2.3813660506993,12.9871231469404,10.8862477465862,14.5872740435029,7.20350033073029
35_FALSE_4_5,695.9,3,695.9,35,FALSE,5,4,0,1.16666700000008,5,TRUE,brake,FALSE,-10.110079,1.259602,-10.487889,-0.0146836461111111,1.258092,0.409904451335548,1.487309169149,0.103925015132827,0.278734288333333,-1.05092772404372,14.5004901833477,2.20976829708548,10.1523988584861,5.81669153924532
35_FALSE_7_3,1182.65,4,1182.65,35,FALSE,3,7,0,1.16666699999996,3,TRUE,brake,FALSE,-9.859273,0.148147,-10.239292,0.0436740427777778,0.1483,0.0389603797078694,0.315822113791538,0.0927269731712816,0.0244460811111111,-2.62809054811716,2.10423997005411,0.43060568402525,7.7075116039905,5.00134496764874
35_TRUE_1_3,248.95,1,248.95,35,TRUE,3,1,0,2.23333300000002,3,TRUE,brake,TRUE,-9.932263,1.055584,-10.29984,0.868433968333333,0.892657,0.272027718575211,1.88414395511059,0.236891731497488,0.241094037222222,-1.92391932402235,8.37851288073053,3.46314964586415,8.88421426776483,7.66759535745238
35_TRUE_2_5,395.25,2,395.25,35,TRUE,5,2,0,1.46666699999997,5,TRUE,brake,FALSE,-9.668911,0.968463,-10.04874,0.0349229761111111,0.968364,0.168161561009,1.25807438003412,0.16086625821625,0.0914812822222222,-1.30484284528302,4.85495450369069,4.0657757688438,9.41424568407946,4.52163883429576
35_TRUE_4_5,616.05,3,616.05,35,TRUE,5,4,0,1.5166670000001,5,TRUE,brake,FALSE,-8.513106,0.729986,-8.86236,0.0148553833333333,0.729927,0.255482886181805,1.55602784405455,0.145864408242973,0.233570288333333,-4.0900198373494,1.40663813784167,1.80301424727558,7.05931848379688,5.13851598121747
35_TRUE_6_3,876.466667,4,876.466667,35,TRUE,3,6,0,1.35000000000002,3,TRUE,brake,FALSE,-9.889486,2.881894,-10.273028,0.0148645505555555,1.911284,0.280216660733712,5.77557324617165,0.337889740044713,0.168249542222222,-2.83029932716049,3.31276438461,2.21170781998268,4.29274280387318,3.92628025992279
36_FALSE_10_3,1422.55,4,1421.35,36,FALSE,3,10,1.20000000000005,1.25,3,TRUE,brake,FALSE,-9.928037,1.048747,-10.304989,0.0931815783333333,1.051422,0.130676565133366,3.26019407257047,0.290584914232102,0.0941499955555556,-3.36631689845475,11.4440188130096,1.57256143035514,8.41613983537319,3.37778328923385
36_FALSE_2_5,372.266667,1,370.75,36,FALSE,5,2,1.51666699999998,1.58333299999998,5,TRUE,brake,FALSE,-4.195079,0.564777,-4.572026,0.0218604533333333,0.56536,0.113050196505751,0.807890645700909,0.160122537481361,0.0821319005555556,-0.962052914670659,11.4557485318364,2.71824006989026,10.8039463485148,3.80971423927384
36_FALSE_4_3,590.866667,2,589.55,36,FALSE,3,4,1.31666700000005,1.0166670000001,3,TRUE,brake,FALSE,-9.621174,1.224471,-9.995019,0.0279905866666667,1.224665,0.413193144520435,1.41093795773349,0.239989887619691,0.287271630555556,-2.12387536111111,10.961004421149,2.10267967247189,9.33751839534864,2.7956894287404
36_FALSE_6_5,851.883333,3,850.5,36,FALSE,5,6,1.38333299999999,1.36666700000001,5,TRUE,brake,FALSE,-7.278628,0.880863,-7.656159,0.0299210872222222,0.88164,0.288074923664601,1.60105926581481,0.270193735898753,0.246332750555556,-0.95195992563081,7.33098984857652,1.2538896533604,6.75365303065879,2.13117639431305
36_TRUE_10_3,2018.916667,4,2017.633333,36,TRUE,3,10,1.28333399999997,1.06666700000005,3,TRUE,brake,FALSE,-9.978581,0.613045,-10.358805,0.00323604055555556,0.620048,0.202424114610769,1.48915576098982,0.202293518827717,0.179740922222222,-5.19776921052632,5.99201951241802,1.37581700071623,6.3053199110856,1.30966512922467
36_TRUE_1_5,726.05,1,725.05,36,TRUE,5,1,1,1.15000000000009,5,TRUE,brake,FALSE,-6.672953,1.372688,-7.061176,0.0490411188888889,1.593034,0.23144407114055,1.30163893780205,0.0622172271003946,0.0945578833333333,-2.93402436470588,11.4150873496896,2.34529750593229,8.41747665099832,1.89746766860769
36_TRUE_7_3,1667.3,2,1665.616667,36,TRUE,3,7,1.68333299999995,1.59999999999991,3,TRUE,brake,FALSE,-8.055425,2.908467,-10.422908,0.101473258333333,2.023905,0.306619500838567,33.3091527601726,0.89423697751698,0.187278444444444,-4.45662260645161,2.64205771047199,1.01130230730865,5.13627422709582,3.36616798202066
36_TRUE_8_5,1796.183333,3,1795.083333,36,TRUE,5,8,1.09999999999991,1.18333400000006,5,TRUE,brake,FALSE,-5.114142,1.237213,-5.495809,0.0172274722222222,1.228361,0.319491122940442,1.35715355586446,0.100967468952282,0.169706578333333,-1.4135851893617,3.60696842966885,1.26367094141355,2.4519123787233,1.20618645574357
37_FALSE_1_3,319.416667,1,318.833333,37,FALSE,3,1,0.583334000000036,1,3,FALSE,steer,FALSE,-9.92379,5.389403,-10.309381,0.0290379877777778,4.54351,0.577325783686115,28.0192844593875,0.465948004800361,0.251558422222222,-2.14978190147059,7.27729956839292,3.17491727667443,6.03416297952674,4.5364213957897
37_FALSE_3_5,537.083333,2,536.2,37,FALSE,5,3,0.883332999999993,1.84999999999991,5,TRUE,brake,FALSE,-9.629394,0.419359,-10.00863,0.01221717,0.2661,0.0843887844792533,0.489108842385653,0.116853022017001,0.0617491966666667,-1.22575688027211,8.47686450690807,4.9830625706476,3.86178569384377,5.45385741099302
37_FALSE_6_3,968.066667,3,967.333333,37,FALSE,3,6,0.733334000000014,1.06666699999994,3,TRUE,brake,FALSE,-9.970407,1.226742,-10.348064,-0.0137523588888889,1.223634,0.408123313911601,1.44691406492716,0.124258958234979,0.267663411666667,-2.50047331117825,7.56686422035003,2.28522901652572,8.01160921758993,4.46589641205116
37_FALSE_7_5,1097.5,4,1096.8,37,FALSE,5,7,0.700000000000046,1,5,TRUE,brake,FALSE,-9.792238,0.352864,-10.167109,0.0136809061111111,0.354081,0.101310840251281,0.613373831045715,0.0966759225391999,0.0698458583333333,-2.42634042299795,11.2677247660608,2.65354980184073,6.33856755709691,6.1737051214064
37_TRUE_10_5,1507.833333,4,1507,37,TRUE,5,10,0.833333000000039,1.13333299999999,5,FALSE,steer,FALSE,-5.318389,1.238955,-5.699073,0.00395478444444444,1.249575,0.288516972267645,1.74818440718133,0.123478711984449,0.225681672222222,-0.964249482367758,3.38331382253286,2.06629029090873,3.91412246298825,5.82001958508881
37_TRUE_2_3,408.8,1,408.033333,37,TRUE,3,2,0.766666999999984,1.41666699999996,3,TRUE,brake,TRUE,-8.118927,0.521294,-10.22562,0.710642542222222,0.521585,0.104336764026021,1.55319133490812,0.140065646771671,0.0687306472222222,-1.48838722279793,2.89928526352822,1.3139443777776,9.24973904262417,6.40075651818668
37_TRUE_4_5,640.716667,2,640.716667,37,TRUE,5,4,0,2.69999999999993,5,TRUE,brake,FALSE,-6.893423,0.959621,-7.261428,0.0148581427777778,0.959829,0.349015874626825,1.69787510299118,0.120807785939706,0.295985492777778,-1.282829390625,8.77462959457277,2.28650783146029,3.85207098692657,5.13676815745092
37_TRUE_5_3,731.8,3,731.8,37,TRUE,3,5,0,0.816667000000052,3,TRUE,brake,FALSE,-9.879482,1.379947,-10.257729,0.0191300716666667,1.378612,0.302620308887822,1.40585884962124,0.073010079225308,0.154268762777778,-2.07012207266983,4.80891939594606,2.76393512073553,4.80250448427809,5.98540297797508
38_TRUE_10_5,1652.4,4,1651,38,TRUE,5,10,1.40000000000009,1.65000000000009,5,TRUE,brake,FALSE,-10.031267,0.922003,-10.408281,0.00999108555555556,0.92064,0.168543804010382,2.00629246991626,0.187404605137832,0.113682362222222,-2.03245667866324,1.90337334079513,3.21107929928631,4.60310563219255,5.60005350083458
38_TRUE_2_3,574.866667,1,573.35,38,TRUE,3,2,1.51666699999998,1.69999999999993,3,FALSE,steer,FALSE,-8.137911,5.928027,-10.489182,0.0256626766666667,5.929528,0.529180319580361,5.71854663324252,0.271503894729612,0.368616825555556,-2.54983307730263,2.87224629357619,2.47090370907537,5.03879043086077,6.01622332733304
38_TRUE_4_5,832.35,2,830.95,38,TRUE,5,4,1.39999999999998,1.84999999999991,5,TRUE,brake,FALSE,-10.029104,1.067448,-10.404513,0.0510992761111111,1.066315,0.388494399212402,1.78685385317518,0.264581563299292,0.32025363,-2.53391012269939,1.77189134712071,1.26527339093579,2.84972791731666,4.96127550972881
38_TRUE_6_3,1091.766667,3,1090.5,38,TRUE,3,6,1.2666670000001,1.21666699999992,3,TRUE,brake,FALSE,-10.172519,0.574888,-10.549514,0.0347529661111111,0.575161,0.250301919059394,3.9108611450587,0.303954046226165,0.228476138888889,-5.32623792553192,1.88337489576097,1.82268481788886,3.5808383300205,6.34527576136224
39_FALSE_1_5,360.633333,1,360.633333,39,FALSE,5,1,0,1.15000000000003,5,TRUE,brake,FALSE,-5.793639,0.321946,-6.167754,-0.0221598372222222,0.322311,0.0936476252953714,0.545843523024179,0.117220156006353,0.0665653861111111,-1.08003133940397,3.40371590417299,4.95261537118927,3.09591187549361,5.86023886056918
39_FALSE_2_3,492.116667,2,492.116667,39,FALSE,3,2,0,1.05000000000001,3,TRUE,brake,FALSE,-9.744571,1.003392,-10.118313,0.00906279277777779,1.003209,0.343019211496428,1.5457819733343,0.387971609982373,0.268451782222222,-4.71095643173432,3.85913897220821,4.75300741464594,4.26071605372201,5.00306280995231
39_FALSE_4_5,708.933333,3,708.933333,39,FALSE,5,4,0,1.06666700000005,5,TRUE,brake,FALSE,-7.570214,1.222037,-7.958542,-0.0191261405555556,1.259863,0.290333050708747,1.45549828295434,0.185452582548043,0.170399175555556,-1.30178646850394,7.79640603673093,4.92049655326196,3.65520898240209,5.48135669710109
39_FALSE_7_3,1188.633333,4,1188.633333,39,FALSE,3,7,0,1.45000000000005,3,TRUE,brake,FALSE,-7.908631,1.144273,-10.26336,0.0368287038888889,1.147128,0.353919411383708,1.41184454463655,0.190466083859068,0.185364345555556,-6.27070621395349,3.99842955629921,1.02589468891209,3.78552869393392,7.02170850606216
39_TRUE_1_3,257.266667,1,256.7,39,TRUE,3,1,0.566666999999995,1.15000000000003,3,FALSE,steer,TRUE,-9.640249,2.447436,-10.025904,0.853589753333333,2.007807,0.415385895099809,2.41177485387263,0.215996189349634,0.232914774444444,-1.26372886111111,20.8598258376773,4.68763920970646,7.47920413328898,9.18680522910175
3_FALSE_1_5,397.25,1,396.233333,3,FALSE,5,1,1.01666699999998,1.433334,5,TRUE,brake,FALSE,-9.823798,0.457759,-10.197104,0.0534453566666667,0.457422,0.0931083320403013,0.785401230158986,0.17726129551059,0.0630021088888889,-2.59079030696203,11.8304994514782,2.76730870418174,9.61421906222972,5.23534748729449
3_FALSE_2_3,528.983333,2,527.716667,3,FALSE,3,2,1.26666599999999,1.23333300000002,3,TRUE,brake,FALSE,-10.874735,6.120242,-11.251726,-0.259945792222222,6.119962,1.28603808533178,107.403580664682,0.567505724150684,0.770925297222222,-4.19123860224719,10.775090347455,1.80253019049518,15.2399950674777,5.60943196823618
3_FALSE_4_5,757.25,3,756.166667,3,FALSE,5,4,1.08333300000004,1.11666600000001,5,TRUE,brake,FALSE,-7.058633,1.180766,-7.44326,0.0357495672222222,1.469235,0.247453395950303,1.1539081295069,0.119110660332453,0.127245215555556,-2.34946825910931,10.2230229816735,1.87015725206342,10.2367890296835,4.28460843060531
3_FALSE_7_3,1229.533333,4,1228.75,3,FALSE,3,7,0.783333000000084,0.866667000000007,3,TRUE,brake,FALSE,-10.071509,0.232847,-10.449419,0.0315132711111111,0.235453,0.0822591479707631,1.19792883250221,0.115828524957352,0.0584472272222222,-5.28157678884462,8.11242129069697,2.35711436539139,9.42525122093407,6.28291327570687
3_TRUE_1_3,292.616667,1,291.033333,3,TRUE,3,1,1.58333399999998,2.11666699999995,3,TRUE,brake,TRUE,-7.87241,0.226664,-10.221842,0.805757549444444,0.226331,0.0515709357179169,0.695371739853579,0.0974665090635166,0.0362725416666667,-4.21009327192983,16.1332048927417,3.33144023609538,7.01860733956452,6.47619463457075
3_TRUE_2_5,468.333333,2,467.45,3,TRUE,5,2,0.883332999999993,0.983333000000016,5,TRUE,brake,FALSE,-9.779981,1.128144,-10.160525,0.0716530244444445,1.128555,0.409791376425386,1.32943191369212,0.132091512911031,0.248277361111111,-4.2875638115942,11.6346866855101,2.22268623963343,9.80902801357985,7.3032202289002
3_TRUE_4_5,689.516667,3,688.266667,3,TRUE,5,4,1.25,1.06666600000005,5,TRUE,brake,FALSE,-5.303704,1.637475,-5.662277,-0.00933609888888889,1.757579,0.300955661489423,1.61299814139326,0.160224095992798,0.238443593333333,-1.04478629457364,8.13968876189084,2.58261816609986,9.72032260426392,4.93285113860607
3_TRUE_6_3,949.666667,4,948.733333,3,TRUE,3,6,0.933333999999945,0.866667000000007,3,TRUE,brake,FALSE,-9.63086,3.908775,-10.012804,0.0155612411111111,3.910094,0.763201680084086,6.12648564916804,1.14744047071594,0.382317903333333,-2.59825382876712,10.9929913942257,2.10626035339083,14.3522888009545,4.30869873051887
41_FALSE_1_3,239.733333,1,238.7,41,FALSE,3,1,1.033333,1.36666700000001,3,TRUE,brake,FALSE,-9.742555,1.194132,-10.122468,0.0525319811111111,1.254415,0.305178038345784,7.6151925997757,0.543853939970729,0.188715801111111,-1.73132234749035,12.5166462132972,5.06224708907963,18.2488846943405,6.20648897476459
41_FALSE_3_5,483.383333,2,482.7,41,FALSE,5,3,0.683333000000005,1.16666700000002,5,TRUE,brake,FALSE,-9.702714,1.043401,-10.083366,-0.013039745,1.043493,0.34751842963309,1.63107660609232,0.109569632101024,0.284828926666667,-1.07173435135135,11.3069802923728,3.32872946795567,10.1851774620088,3.84157219928213
41_FALSE_6_3,911.283333,3,910.283333,41,FALSE,3,6,1,1.30000000000007,3,TRUE,brake,FALSE,-9.920458,2.615549,-10.293764,0.0381390316666667,2.48554,0.402236532593554,12.6791301804352,0.169020578027763,0.250775539444444,-2.24093150868878,11.5772594185287,4.27342489080607,11.071429092529,4.35420039381172
41_FALSE_7_5,1040.516667,4,1039.75,41,FALSE,5,7,0.766667000000098,1,5,TRUE,brake,FALSE,-9.958035,1.380507,-10.339821,0.0127541172222222,1.38117,0.455586563943533,1.66114374060748,0.0976595922533806,0.335385583333333,-1.44523843461538,9.46615140583635,3.25161714200932,10.4037004159912,5.1629559906181
41_TRUE_10_5,1504.383333,4,1503.483333,41,TRUE,5,10,0.900000000000091,1.3833340000001,5,TRUE,brake,FALSE,-9.478804,1.069376,-9.856071,0.0440551966666667,1.08878,0.377167189643302,1.64859540573454,0.0929933076383504,0.313858373333333,-0.969200120516499,9.21141926962038,3.34323840527552,5.49341944967865,4.06017831150698
41_TRUE_2_3,413.683333,1,412.516667,41,TRUE,3,2,1.16666600000002,1.16666600000002,3,FALSE,steer,TRUE,-9.711986,0.286294,-10.091965,0.641098008333333,0.285718,0.0713153642246368,1.26074133145385,0.193246813259734,0.0451458683333333,-2.89029032083333,4.08098303858367,2.35176814687819,9.25329622329848,7.12395713774546
41_TRUE_4_5,646.216667,2,645.05,41,TRUE,5,4,1.16666700000008,1.80000000000007,5,TRUE,brake,FALSE,-8.075722,0.895464,-8.453343,0.0512020805555556,0.89509,0.340159047823087,1.79617044622147,0.128835205519657,0.311930093333333,-1.06011004115854,11.1016359213007,5.33173186143731,11.418290585803,5.18660561367861
41_TRUE_5_3,736.9,3,736.133333,41,TRUE,3,5,0.766666999999984,1.01666699999998,3,TRUE,brake,FALSE,-9.882333,1.65803,-10.2627,0.0383467638888889,1.657476,0.330301183526115,1.28817988681291,0.130447250717149,0.172873726666667,-2.11569358153846,7.23001145342757,3.13556858007849,12.8413891950691,5.15261638672543
42_FALSE_4_3,596.616667,1,595.683333,42,FALSE,3,4,0.933334000000059,1.23333400000001,3,TRUE,brake,TRUE,-9.87774,0.77315,-10.255014,0.448060782222222,0.773721,0.193212163404442,1.50232302259152,0.128356622286463,0.158721117777778,-2.46886436101083,14.5634006142489,3.85904844141445,11.873394723381,6.14920369806815
42_FALSE_6_5,944.216667,2,943.433333,42,FALSE,5,6,0.783334000000082,1.15000000000009,5,TRUE,brake,FALSE,-9.713434,0.999516,-10.091543,-0.0646106083333333,0.998548,0.249039363889006,1.10905080490087,0.157831603992641,0.138627288333333,-1.41134020556745,2.86358926830958,0.674031947153546,9.20534847581619,3.74758875195534
42_FALSE_8_3,1203.55,3,1202.666667,42,FALSE,3,8,0.883332999999993,0.933332999999948,3,TRUE,brake,FALSE,-9.849808,1.25951,-10.230472,0.0268590766666667,1.259994,0.37657055119524,1.40908731830032,0.113427572149775,0.243951051666667,-5.70625267906977,7.05945365280524,2.91328661743515,8.77348750073784,4.64446899105435
42_FALSE_9_5,1332.8,4,1332.15,42,FALSE,5,9,0.649999999999864,0.849999999999909,5,TRUE,brake,FALSE,-10.234801,0.469398,-10.554254,0.0159159527777778,0.327804,0.0893947171559675,0.64932339608785,0.0857190261476491,0.0663798866666667,-1.73167872086721,12.167692480243,3.5235243022324,10.4871434080358,3.88022035028162
42_TRUE_10_5,1593.983333,4,1592.866667,42,TRUE,5,10,1.1166659999999,0.933332999999948,5,TRUE,brake,FALSE,-9.859159,0.260788,-10.22151,0.00378122722222222,0.263117,0.0845134730272484,0.799230636086785,0.119574461292534,0.0694696011111111,-2.50415752490421,10.5153616940027,2.6093240928627,15.3303533273426,3.82459209237367
42_TRUE_2_3,510.983333,1,510.016667,42,TRUE,3,2,0.966666000000032,1.15000000000003,3,TRUE,brake,FALSE,-9.938587,0.963818,-10.315797,0.0301532261111111,0.963941,0.345997716185125,1.54206642003583,0.0718241814799196,0.248629613888889,-5.86780903398058,11.2435561491061,2.48328288832632,13.2847116132636,3.05475220256538
42_TRUE_4_5,768,2,767.283333,42,TRUE,5,4,0.71666700000003,0.75,5,TRUE,brake,FALSE,-10.16527,0.977664,-10.423038,-0.0695363722222222,0.978237,0.264655517534681,1.47969068257159,0.147413958555119,0.232098073888889,-1.06283119269103,9.79706066649951,2.34155422510804,11.5977952917463,3.31631771410317
42_TRUE_6_3,1027.316667,3,1026.483333,42,TRUE,3,6,0.83333400000015,0.916667000000189,3,TRUE,brake,FALSE,-9.894993,0.624924,-10.272833,-0.02240894,0.62554,0.166582856851609,1.57019165135976,0.115401832736486,0.166082048333333,-3.78209178066915,10.1972192198057,1.99465247216508,10.5323059507558,4.4578497611188
43_FALSE_1_5,598.65,1,597.433333,43,FALSE,5,1,1.21666700000003,1.48333400000001,5,FALSE,steer,FALSE,-9.749427,3.293036,-10.12892,-0.230299046111111,2.377518,0.240283772286491,83.9091453719307,1.07305992075522,0.136404007777778,-5.86490469871795,4.02610584887575,3.3156356511663,12.0166792193291,7.20885570038817
43_FALSE_2_3,743.35,2,742.35,43,FALSE,3,2,1,0.899999999999977,3,TRUE,brake,FALSE,-10.028874,1.00607,-10.402955,-0.0151121622222222,1.006312,0.326695426604618,1.75297470425404,0.278308799475112,0.217750233888889,-3.28527881922197,3.20382900973004,5.83676101533969,6.1816576818938,6.11124922052273
43_FALSE_4_5,960.916667,3,959.783333,43,FALSE,5,4,1.13333399999999,0.933334000000059,5,TRUE,brake,FALSE,-10.088555,0.64055,-10.469736,0.00408268555555555,0.641469,0.23642088899805,1.41370493465588,0.177302830490801,0.220243100555556,-1.97065168671679,4.08174515332047,5.49389393566766,8.67495106241448,5.96537938986446
43_FALSE_7_3,1437.1,4,1436.166667,43,FALSE,3,7,0.933332999999948,0.816665999999941,3,TRUE,brake,FALSE,-9.832059,0.780765,-10.210488,0.0210774711111111,0.777824,0.0668036820682878,0.815364120653824,0.161490537221941,0.0400143261111111,-4.91662441979522,2.85121714672939,3.94511664068471,12.8555994154676,6.03881080035695
43_TRUE_1_3,255.766667,1,254.15,43,TRUE,3,1,1.61666700000001,1.816667,3,FALSE,steer,TRUE,-4.479782,1.751349,-6.838042,0.655681103333333,1.410948,0.236411053602135,2.00343251166436,0.133999671543296,0.0969639555555555,-1.44109257861635,2.25912010024986,2.59571932985325,5.26865901801433,7.05246770986135
43_TRUE_2_5,411.783333,2,410.6,43,TRUE,5,2,1.183333,1.11666699999995,5,TRUE,brake,FALSE,-5.544073,0.577655,-5.925954,-0.114443506111111,0.57669,0.226600772267862,1.5292519969134,0.186019508168187,0.220551553888889,-0.97267486696562,4.09375560831781,2.10386086721892,4.47178827229136,3.97280305604771
43_TRUE_4_5,633.166667,3,631.833333,43,TRUE,5,4,1.33333399999992,1.11666700000001,5,TRUE,brake,FALSE,-9.81259,1.389673,-10.190829,-0.0582862122222222,1.39036,0.211358217455566,1.82159483981127,0.0860927717183602,0.0964984855555556,-1.96646009388646,5.35862185858683,3.88398908587711,9.98858433432324,4.98702351683028
43_TRUE_6_3,896.033333,4,894.816667,43,TRUE,3,6,1.21666599999992,1.46666599999992,3,TRUE,brake,TRUE,-7.999462,0.982585,-10.357405,0.558514956666667,0.98121,0.112533314070999,1.76220166353876,0.164601545626031,0.0640913361111111,-2.40799635123967,1.80023756691422,4.46269493254314,6.22023624463922,6.70938235552862
44_FALSE_10_3,1456.316667,4,1454.783333,44,FALSE,3,10,1.53333399999997,1.93333399999983,3,TRUE,brake,TRUE,-8.020583,0.829264,-10.372408,0.681345458888889,0.827614,0.256255424669969,1.64451283176276,0.208169064869131,0.222851955,-3.5279818556701,11.3070821028747,8.62940164181165,13.1282152399259,6.25413387964854
44_FALSE_2_5,372.383333,1,370.5,44,FALSE,5,2,1.88333299999999,3.46666699999997,5,TRUE,brake,FALSE,-8.436239,0.709623,-10.255295,-0.0789104527777778,0.709765,0.250370446237304,1.86044266556769,0.216214745886978,0.220157750555556,-2.4337679596603,14.845148569425,5.3443952312838,14.4046026626785,7.73556117159937
44_FALSE_4_3,594.6,2,593.066667,44,FALSE,3,4,1.53333299999997,1.75,3,FALSE,steer,TRUE,-8.17372,1.317176,-10.537448,0.616542216666667,0.873673,0.191500245324741,4.20517817226013,0.120803162115599,0.141359123333333,-1.93561741984733,13.7288387671522,6.23077228793268,10.9194520806685,6.83917974004312
44_FALSE_6_5,878.75,3,876.866667,44,FALSE,5,6,1.88333299999999,2.13333299999999,5,TRUE,brake,FALSE,-10.105282,0.3574,-10.483098,0.0307852538888889,0.360277,0.104095509430208,1.20079014682644,0.183219992699963,0.0749997044444444,-2.66812563793103,20.7151917638694,7.33959708957663,13.649115722075,7.8740164687924
44_TRUE_10_3,1636.783333,4,1635.733333,44,TRUE,3,10,1.05000000000018,1.23333400000001,3,TRUE,brake,FALSE,-10.16047,1.467364,-10.533719,0.0834893705555556,1.466122,0.336121638875564,2.31622537592749,0.266350417968997,0.181243589444444,-5.56097509387755,12.4427472406382,2.8847532385389,9.88925960592402,5.55252211462338
44_TRUE_1_5,366.8,1,365.7,44,TRUE,5,1,1.10000000000002,1.61666700000001,5,TRUE,brake,FALSE,-10.171329,0.266124,-10.544198,0.0553170883333333,0.266476,0.080933070059994,0.771719400946065,0.103252879336561,0.06157086,-2.17981533893557,11.6597712769553,4.10492605830579,8.87750483887999,6.9391660224782
44_TRUE_7_3,1284.85,2,1283.716667,44,TRUE,3,7,1.13333299999999,1.48333300000013,3,TRUE,brake,FALSE,-8.185993,1.379464,-10.540271,0.0758458788888889,1.379115,0.380895321825037,1.57465800089303,0.18914510954617,0.274916111666667,-5.98759663445378,11.1571417173432,2.54030999425309,13.9564310172509,7.5773986632119
44_TRUE_8_5,1414.083333,3,1413.183333,44,TRUE,5,8,0.900000000000091,1.29999999999995,5,TRUE,brake,FALSE,-10.090578,1.008843,-10.469886,0.0324227661111111,1.01047,0.187797904694235,2.75479003224284,0.100977877804334,0.115265254444444,-2.25640784281843,10.9005311172506,5.07506313499096,11.4000526098535,5.49185181033241
45_FALSE_1_3,340.616667,1,339.216667,45,FALSE,3,1,1.40000000000003,1.81666600000005,3,FALSE,steer,TRUE,-7.872083,1.318214,-10.224403,0.408944210555556,1.151865,0.17940557654766,7.31345299302695,0.193942659298091,0.119577459444444,-1.39128165227273,7.14318967955247,7.35319727664818,8.61527531965277,7.25488875265309
45_FALSE_3_5,560.75,2,559.2,45,FALSE,5,3,1.54999999999995,1.7333329999999,5,TRUE,brake,FALSE,-6.530611,1.942975,-6.907158,0.00152959444444444,1.94298,0.343981854063823,2.06645060864738,0.180264016680544,0.169586968888889,-1.65246252380952,5.22427884469933,5.70177697327107,7.78771341979997,7.98968213459883
45_FALSE_6_3,995.65,3,994.45,45,FALSE,3,6,1.19999999999993,1.11666700000001,3,TRUE,brake,FALSE,-9.751124,1.036658,-10.131204,-0.0117190161111111,1.033689,0.346602615965441,1.56883126731429,0.180656512678607,0.262072183333333,-3.27159680938416,9.63937614796385,3.79029542535397,6.97724568212722,8.59933371051202
45_FALSE_7_5,1125.066667,4,1123.916667,45,FALSE,5,7,1.15000000000009,1.23333300000013,5,TRUE,brake,FALSE,-5.328019,0.535144,-5.709266,0.03258458,0.494458,0.136654321332267,0.771156736739115,0.180069129723291,0.0955128305555555,-1.3641314,8.82017790807868,5.26952268530826,11.7816831979969,4.75905805987717
45_TRUE_10_5,1544.616667,4,1543.45,45,TRUE,5,10,1.16666699999996,1.13333299999999,5,TRUE,brake,FALSE,-7.750159,0.61304,-8.096044,0.0400264266666667,0.610983,0.171610818897346,0.837736816592404,0.164009071249007,0.124862481111111,-1.10208040471869,1.85862932516288,1.42764343165679,5.6682419091126,6.22038200515023
45_TRUE_2_3,428.883333,1,427.633333,45,TRUE,3,2,1.25,1.66666700000002,3,TRUE,brake,FALSE,-8.087872,0.304626,-10.441154,0.0588140827777778,0.30491,0.0836301832340076,0.989183650159786,0.0858998000028305,0.0608453227777778,-4.979463109375,1.92883627394815,1.55951930632366,8.1630674186127,7.26388030647755
45_TRUE_4_5,646.8,2,645.333333,45,TRUE,5,4,1.46666699999992,1.54999999999995,5,TRUE,brake,FALSE,-8.845184,1.354341,-9.218205,0.0255951205555556,1.355618,0.344087132711312,1.35769806313271,0.155246676761515,0.230806962777778,-1.70723045646438,2.83881141157704,0.956036293663329,4.56041007643389,6.75643366455503
45_TRUE_5_3,737.55,3,736.416667,45,TRUE,3,5,1.13333299999999,1.06666600000005,3,TRUE,brake,FALSE,-9.693893,3.333894,-10.075218,0.0435430172222222,3.333746,0.289390985750938,2.25425245728813,0.19534821052279,0.153458149444444,-3.69849533791209,3.09885160978171,1.31877089054355,9.5187534168272,9.138436901976
46_FALSE_4_3,597.433333,1,596.416667,46,FALSE,3,4,1.01666599999999,1.80000000000007,3,FALSE,steer,TRUE,-10.457782,1.145304,-10.499545,0.73381417,0.919193,0.180782149374681,4.53294306670904,0.106218353189319,0.114745370555556,-2.2629114890511,6.71085287373252,4.28741843180068,7.64041530178563,4.91143950351321
46_FALSE_6_5,958.733333,2,957.616667,46,FALSE,5,6,1.11666600000001,0.799999999999955,5,TRUE,brake,FALSE,-9.781269,1.479992,-10.0624,0.0513414055555556,1.483406,0.321520440666833,2.03043477355216,0.14378011579194,0.259632292777778,-1.9438885565032,15.0905490301937,3.93527770078112,4.05691924531046,3.50950609513202
46_FALSE_8_3,1219.133333,3,1218.066667,46,FALSE,3,8,1.06666599999994,1.53333299999986,3,TRUE,brake,TRUE,-7.981675,4.636629,-10.344274,0.541386008888889,3.995361,0.655973723931675,39.0029533732997,0.425577112705808,0.320763265555556,-3.57208745454545,9.9490550871618,3.68106465855756,9.76371253492345,6.03746819414709
46_FALSE_9_5,1357.8,4,1356.516667,46,FALSE,5,9,1.28333299999986,1.31666599999994,5,TRUE,brake,FALSE,-9.964268,1.684804,-10.344486,0.0288901772222222,1.694936,0.457814243472098,2.04811342983155,0.15088003980049,0.304997672222222,-2.49125384269663,11.3148883545933,2.85864831171272,2.78760270021382,3.33742814124932
46_TRUE_10_5,1657,4,1655.666667,46,TRUE,5,10,1.33333300000004,1.91666600000008,5,TRUE,brake,FALSE,-10.364169,1.285724,-10.74322,-0.0128398855555556,1.317403,0.387813329532964,1.62384353930978,0.134844690933001,0.275797271666667,-1.73281466873706,4.44652297635245,2.47409395532341,5.6490644109541,3.70118272460121
46_TRUE_2_3,548.383333,1,547.6,46,TRUE,3,2,0.783332999999971,1.28333299999997,3,TRUE,brake,TRUE,-10.006996,1.426365,-10.383792,0.513792936111111,1.427575,0.452708031222756,3.75510737080261,0.201484106788021,0.323346965,-1.89698518540434,3.82755425598926,2.62544883355196,7.73183003190528,7.0852265055934
46_TRUE_4_5,807.8,2,806.65,46,TRUE,5,4,1.14999999999998,1.06666700000005,5,TRUE,brake,FALSE,-9.909059,0.767418,-10.287221,0.047356105,0.766622,0.330304740813484,2.00113524617535,0.174814157087965,0.307789659444444,-2.28492015817694,5.61952262485678,3.72510624001429,8.50399190866751,3.73001838137417
46_TRUE_6_3,1070.433333,3,1069.416667,46,TRUE,3,6,1.01666599999999,0.950000000000045,3,TRUE,brake,FALSE,-9.88065,7.276212,-10.269856,0.048826225,8.326445,1.56678843991964,116.998830140307,4.42921787577644,0.825649383888889,-2.92870155555556,9.70052800529324,3.43678263318518,13.0157690168856,3.66907967781749
47_FALSE_1_5,356.466667,1,355.366667,47,FALSE,5,1,1.09999999999997,0.916666000000021,5,TRUE,brake,FALSE,-9.867124,0.239421,-10.194717,0.0271009322222222,0.239062,0.0556369252398288,0.318005522276162,0.0936792637446152,0.0409280438888889,-1.11522341326531,0,0,3.84906178902884,2.12980119931591
47_FALSE_2_3,487.816667,2,486.85,47,FALSE,3,2,0.966666999999973,0.833332999999982,3,TRUE,brake,FALSE,-10.172938,0.928003,-10.547355,0.0289253683333333,0.927691,0.334127192792106,1.41268892563707,0.127604531926458,0.24605931,-3.18947171396896,0,0,0,0
47_FALSE_4_5,709.216667,3,708.466667,47,FALSE,5,4,0.75,0.799999999999955,5,TRUE,brake,FALSE,-7.56688,1.56012,-7.830842,0.0460051372222222,0.902588,0.15213751357399,0.845115112912585,0.129145751419956,0.0822231616666667,-1.32006180601504,0,0,0,0
47_FALSE_7_3,1181.866667,4,1181.116667,47,FALSE,3,7,0.75,0.766665999999987,3,TRUE,brake,FALSE,-9.939947,0.45731,-10.322045,0.0120719527777778,0.460317,0.0659901459415228,0.561577975655233,0.0787027913922458,0.0427453733333333,-2.50295121553398,0,0,0,0
47_TRUE_1_3,244.15,1,242.966667,47,TRUE,3,1,1.183333,1.36666600000001,3,TRUE,brake,FALSE,-9.322741,0.844498,-10.214046,0.0480745816666667,0.844082,0.315746453406041,1.64495023662072,0.141099442084875,0.254894061111111,-5.10805595087719,11.4188735965993,2.48190908186933,10.5405256675057,3.55692027485048
47_TRUE_2_5,373.366667,2,372.5,47,TRUE,5,2,0.866667000000007,0.933333000000005,5,TRUE,brake,FALSE,-10.025248,0.132172,-10.406992,-0.0144132761111111,0.133238,0.0474951838727723,0.268773954424507,0.0680034354253616,0.0358920933333333,-1.59718661607143,8.46267296713123,2.03838796750189,8.16463724473854,3.20262586332077
47_TRUE_4_5,592.5,3,591.516667,47,TRUE,5,4,0.983333000000016,0.899999999999977,5,TRUE,brake,FALSE,-6.23235,1.261856,-6.587866,0.0146237938888889,1.2604,0.421170875515188,1.33749651025816,0.0753220053825416,0.288329554444444,-1.34227434323923,12.7920466348229,2.48868405979094,10.3617061233407,3.24732950173903
47_TRUE_6_3,852.183333,4,851.183333,47,TRUE,3,6,1,0.866667000000007,3,TRUE,brake,FALSE,-9.7622,1.276114,-10.1362,0.02086233,1.276769,0.373035562926731,1.43583920180914,0.128098844547612,0.271922367777778,-2.76935346138996,14.1252580583124,3.11764232654194,11.0043408019679,3.90981336143741
48_FALSE_10_3,1392.366667,4,1390.75,48,FALSE,3,10,1.61666700000001,0.900000000000091,3,TRUE,brake,FALSE,-9.913178,1.527166,-10.29742,0.122849322777778,0.909537,0.310593422764504,4.77824389435329,1.62882181355717,0.232444827777778,-2.8453855,12.9705821318179,3.14335641522376,16.4970474285787,3.30482450307811
48_FALSE_2_5,348.166667,1,346.866667,48,FALSE,5,2,1.30000000000001,1.63333299999999,5,FALSE,steer,FALSE,-9.882913,0.964994,-10.263371,-0.0697424061111111,0.964059,0.257292046045276,1.87443503792645,1.41780340593327,0.180223286666667,-1.10204574175036,10.0834403253181,4.29153177937894,13.341928986627,4.46065165050143
48_FALSE_4_3,566.783333,2,565.616667,48,FALSE,3,4,1.16666599999996,0.899999999999977,3,TRUE,brake,FALSE,-9.838958,4.692613,-10.219694,0.0554102288888889,4.693117,0.723315558908006,24.5904418710739,1.5854075500367,0.515324626666667,-4.919724244,18.8778646834777,3.15911425794315,16.1197352699017,2.82221793245575
48_FALSE_6_5,828.733333,3,827.3,48,FALSE,5,6,1.43333300000006,0.800000000000068,5,TRUE,brake,FALSE,-10.203018,1.197328,-10.469028,-0.0242848755555556,1.197096,0.29536909555458,1.71437208017986,0.237341847195747,0.238960016666667,-1.95635714411765,10.6514449053286,3.23553861891141,10.1423931430967,4.17863175719978
48_TRUE_10_3,2299.25,4,2297.233333,48,TRUE,3,10,2.01666699999987,0.866666999999779,3,TRUE,brake,FALSE,-10.079891,0.23373,-10.45813,-0.00596287666666667,0.227291,0.0891183850239794,1.11601221561162,0.107976269744024,0.0596905094444445,-2.90226076382979,1.89530015606329,2.56391396361051,10.0043252271096,4.43811105918803
48_TRUE_1_5,330.95,1,330.95,48,TRUE,5,1,0,0.900000000000034,5,TRUE,brake,FALSE,-9.762569,0.872796,-10.106679,-0.0503879922222222,0.872742,0.300532529119127,1.75893720613175,0.291685463902743,0.267342323333333,-2.4430751862069,1.40687297757411,1.08838286819881,8.05657093195202,3.71983729450529
48_TRUE_7_3,1246.766667,2,1244.9,48,TRUE,3,7,1.86666700000001,0.849999999999909,3,TRUE,brake,FALSE,-10.170661,2.808318,-10.55203,0.0331866044444444,2.813634,0.475126485190731,4.64250760944839,1.20667393075331,0.238374835555556,-1.11271642351454,2.39260035946786,1.5293922329541,14.8685366548438,5.02309238604617
48_TRUE_8_5,2077.866667,3,2076.583333,48,TRUE,5,8,1.28333399999974,0.76666699999987,5,TRUE,brake,FALSE,-8.248031,0.641722,-8.515813,0.0650500577777778,0.647436,0.131475636458896,0.772941797083526,0.143395492392261,0.0821969894444444,-1.63933976290631,2.22169192891906,1.82823716065183,12.2705252407403,4.26580364751662
49_FALSE_1_3,255.566667,1,253.9,49,FALSE,3,1,1.66666699999999,2.15000000000001,3,FALSE,steer,FALSE,0,8.638483,-2.349494,0.0924731577777778,8.63857,2.38051530015906,13.688242554712,1.20770050017838,1.14352572888889,-0.524783639269406,9.79003984249977,3.03497415488722,14.6988308991277,5.64055297393577
49_FALSE_3_5,482.233333,2,482.233333,49,FALSE,5,3,0,1.66666699999996,5,FALSE,steer,FALSE,-0.050754,2.295486,-0.42354,0.0824988894444445,2.295439,0.557409924173204,2.26964126181207,0.990177741020003,0.34470296,-0.224507563968668,3.15036587126197,2.07264939777726,7.35929598277459,4.69071546489439
49_FALSE_6_3,959.783333,3,958.783333,49,FALSE,3,6,1,0.966667000000029,3,FALSE,steer,FALSE,-0.158411,3.914451,-0.540053,-0.00947291944444444,3.912715,0.75323857163779,3.27960637236099,0.82181681497993,0.523847291111111,-0.14502842983317,3.32903767796344,4.71721935266765,7.17377889518728,3.97935985188699
49_FALSE_7_5,1092.333333,4,1091.383333,49,FALSE,5,7,0.950000000000045,0.950000000000045,5,FALSE,steer,FALSE,-0.034986,2.286947,-0.414519,-0.00895482833333334,2.28557,0.515065257934495,2.14452488652718,1.26268988369832,0.365533971111111,-0.168929007054674,10.8474738708567,1.89954026653204,11.3925484082511,5.24370525869663
49_TRUE_10_5,1580.233333,4,1578.85,49,TRUE,5,10,1.38333299999999,1.66666700000019,5,FALSE,steer,FALSE,-0.025781,1.915469,-0.406236,0.0190567366666667,1.911066,0.661237735793937,2.55385169815685,1.26031049480869,0.560376734444445,-0.0855687797246558,3.74670792146636,2.19404173077186,8.72848729232518,4.39644789079796
49_TRUE_2_3,403.966667,1,402.266667,49,TRUE,3,2,1.69999999999999,2.19999999999999,3,FALSE,steer,TRUE,-8.127134,0.315172,-10.47732,0.941763527222222,0.315391,0.0981691056538809,1.19334663337526,0.118610501960445,0.0689004488888889,-1.1295261440678,4.4907571535305,2.92790147095255,5.78270374454328,5.06510578044798
49_TRUE_4_5,628.2,2,626.733333,49,TRUE,5,4,1.46666700000003,3.03333399999997,5,TRUE,brake,FALSE,-0.090538,3.155111,-0.460218,0.0837370166666667,2.98969,0.756004395749866,3.08889863296707,1.04260071336215,0.587438691666667,-0.319045127272727,3.80600111663065,2.64849552283253,8.20439725904367,4.6786924111678
49_TRUE_5_3,742.033333,3,740.783333,49,TRUE,3,5,1.25,1.03333400000008,3,TRUE,brake,FALSE,-4.985609,4.165172,-5.367065,0.0728355438888889,4.165198,0.853421076785792,3.82725832921991,0.847313857755009,0.578398467777778,-0.64011825,3.66092288634939,2.05906618093506,4.32680976161785,4.87683277469964
4_FALSE_10_3,1522.633333,4,1521.5,4,FALSE,3,10,1.13333299999999,1,3,TRUE,brake,FALSE,-4.738184,4.298335,-5.118629,0.0957073994444445,4.296807,0.967747063703307,5.12889234030132,1.48173761563086,0.536705319444445,-0.543630665349144,13.9161166944791,4.76278683632776,11.5982628071298,6.25151321568155
4_FALSE_2_5,397,1,395.116667,4,FALSE,5,2,1.88333299999999,1,5,TRUE,brake,FALSE,-9.491836,1.08255,-9.873942,-0.0260669627777778,1.082637,0.337767805012797,1.66759520549144,0.187264760480294,0.283355567777778,-2.22580947043011,11.1855791491322,2.682303829009,10.6700065963061,4.18153144821213
4_FALSE_4_3,616.716667,2,615.216667,4,FALSE,3,4,1.5,1.06666599999994,3,TRUE,brake,FALSE,-9.692739,9.166726,-10.070155,0.085534935,9.062934,1.59839809056397,21.1345221774765,1.6828781421011,0.601020761666667,-1.52903898080279,3.51484205842908,1.79989415924091,10.6813485428255,5.48056048834668
4_FALSE_6_5,962.816667,3,960.683333,4,FALSE,5,6,2.1333340000001,1.10000000000002,5,TRUE,brake,FALSE,-2.412867,1.042583,-2.790864,0.0220678511111111,1.042422,0.30206446109027,1.83049207883968,0.153398242521896,0.263523467222222,-0.923491851604278,13.6894585971184,3.52841515142052,10.3504080420084,3.73530920525019
4_TRUE_1_5,318.516667,1,316.866667,4,TRUE,5,1,1.64999999999998,1.05000000000001,5,TRUE,brake,FALSE,-2.290485,1.078489,-2.672614,-0.04734272,1.078764,0.305599792224242,1.64671222197215,0.169276074429344,0.252251363333333,-1.22282717509025,14.411691706435,3.19329246093292,9.09609242301482,2.2844175148359
6_FALSE_4_3,611.966667,1,610.7,6,FALSE,3,4,1.26666699999998,1.81666699999994,3,TRUE,brake,TRUE,-7.837934,1.182449,-10.199443,0.446614470555556,0.889521,0.143758492699253,9.38242809878488,0.231453063913479,0.10496067,-4.53134510526316,12.8541965987994,3.85930919262741,15.6670146414033,6.84218239832389
6_FALSE_6_5,989.55,2,987.333333,6,FALSE,5,6,2.21666699999992,1.43333399999995,5,TRUE,brake,FALSE,-7.459591,0.390576,-7.832933,-0.0772197288888889,0.391722,0.0746270761178075,0.534161565076375,0.142605210205175,0.0539236305555556,-2.85148968224299,5.74654330971375,4.85991124589001,8.412532522248,6.49997777593485
6_FALSE_8_3,1250.6,3,1248.966667,6,FALSE,3,8,1.63333299999999,1.80000000000018,3,TRUE,brake,TRUE,-7.838536,0.141028,-10.195816,0.448518434444445,0.144072,0.0562276949357538,0.926639404584165,0.105059647455217,0.0446298966666667,-4.92438429496403,9.64122004296021,4.10375501742248,12.7829815936021,7.21104504570645
6_FALSE_9_5,1380.266667,4,1378.433333,6,FALSE,5,9,1.83333400000015,1.60000000000014,5,TRUE,brake,FALSE,-5.121114,0.799874,-5.498248,-0.072953915,0.800145,0.279270981272004,1.40990334133465,0.319871197180177,0.256072198888889,-1.05015327013423,12.1055437024145,4.8819811748995,11.468018621231,5.50982787856134
6_TRUE_10_5,1912.266667,4,1911.083333,6,TRUE,5,10,1.18333400000006,1.33333399999992,5,TRUE,brake,FALSE,-4.990092,0.801617,-5.369366,-0.219815975555556,0.803487,0.24689027267247,1.71141440319554,0.253544368867125,0.229482580555556,-1.15005788973384,4.93139637782129,2.26914780757383,9.93472726836962,7.23704540377334
6_TRUE_2_3,712.166667,1,710.533333,6,TRUE,3,2,1.63333399999999,1.55000000000007,3,TRUE,brake,FALSE,-7.951945,0.134042,-10.309088,-0.234192537777778,0.133113,0.0387638248130766,1.10117996689846,0.128624255658214,0.0301484605555556,-4.87587850519031,4.11268586232375,1.92752771292437,13.3454546982162,5.90090430313973
6_TRUE_4_5,969.783333,2,968.5,6,TRUE,5,4,1.28333299999997,1.31666700000005,5,TRUE,brake,FALSE,-3.751259,2.191516,-4.135148,-0.178286126111111,1.430757,0.384475361946178,2.21044490452286,0.603456841673458,0.226736341111111,-1.42957624353448,4.63649476691574,1.86998896942851,18.1470860404982,5.06192975248033
6_TRUE_6_3,1258.733333,3,1257.3,6,TRUE,3,6,1.43333299999995,1,3,TRUE,brake,FALSE,-9.654943,0.830677,-10.035399,-0.161147253888889,0.831267,0.260022022752927,2.95498435732494,0.209233425797155,0.176860155,-5.90718730188679,5.03601993657443,2.93189769672123,10.5506729014213,6.85341183871438
7_FALSE_1_5,324.866667,1,323.7,7,FALSE,5,1,1.16666700000002,1.316667,5,TRUE,brake,FALSE,-10.380384,1.126355,-10.758058,0.0440039361111111,1.126248,0.308122841146986,1.64391838730954,0.101990896288805,0.245090813888889,-1.09677230070922,10.7007238702044,3.86573036356592,10.8973986881798,4.75985918710024
7_FALSE_2_3,456.633333,2,455.183333,7,FALSE,3,2,1.44999999999999,1.21666699999997,3,TRUE,brake,FALSE,-10.027718,2.13358,-10.407566,0.0281914683333333,2.133885,0.525754340932055,4.4720208611428,0.319478435869022,0.286175341111111,-3.19802522760291,11.6207047359296,3.97434919582822,11.6909335786189,4.0718605012545
7_FALSE_4_5,674.566667,3,673.416667,7,FALSE,5,4,1.15000000000009,1.30000000000007,5,TRUE,brake,FALSE,-9.856795,1.43812,-10.238151,0.0104032933333333,1.438857,0.415708814609458,1.62006594369209,0.14568021822293,0.31650166,-0.889262705223881,14.3495739275105,7.89355183090297,7.90827057678352,4.59288084086906
7_FALSE_7_3,1155.616667,4,1154.5,7,FALSE,3,7,1.11666700000001,1.16666699999996,3,TRUE,brake,FALSE,-10.165596,0.568077,-10.546703,0.00156947222222223,0.567944,0.140293716310669,1.22670054170142,0.143403192817965,0.0989116272222222,-3.29880321483376,5.78023109917531,3.53110278526094,9.42967321023921,4.38336922736311
7_TRUE_1_3,284.616667,1,283.516667,7,TRUE,3,1,1.10000000000002,1.30000000000001,3,TRUE,brake,FALSE,-9.933434,1.047221,-10.313091,0.0393405705555556,1.047435,0.300750577118786,1.70837813767355,0.214018650069453,0.243333917222222,-3.98390391511936,2.59472321907469,2.51013280876473,6.03685418701071,4.38290555505302
7_TRUE_2_5,414.583333,2,412.983333,7,TRUE,5,2,1.59999999999997,1.09999999999997,5,TRUE,brake,FALSE,-9.833257,0.346473,-10.214103,0.0205409655555555,0.347456,0.114307023220493,1.05028748222493,0.120507711488464,0.0891334566666667,-1.3394486148532,2.59556926744988,3.02710627741005,6.79102435678755,3.6697318478122
7_TRUE_4_5,634.5,3,632.75,7,TRUE,5,4,1.75,0.966667000000029,5,TRUE,brake,FALSE,-5.763599,1.230554,-6.143693,-0.0127344888888889,1.230505,0.422675483191111,1.47254011912946,0.124540201166505,0.310376510555556,-0.816995039370079,2.74493527437405,2.6516665069209,6.50964811992034,2.99817135141578
7_TRUE_6_3,893.7,4,892.883333,7,TRUE,3,6,0.816667000000052,0.866667000000007,3,TRUE,brake,FALSE,-9.936309,1.165144,-10.314594,-0.00988219111111111,1.166694,0.366655158946035,1.5830560799939,0.192629114343635,0.290175311111111,-1.89413419327731,2.64745403633466,3.11263642099412,4.1965332680546,3.86377578254102
8_FALSE_10_3,1440.833333,4,1439.683333,8,FALSE,3,10,1.15000000000009,1.3833340000001,3,TRUE,brake,FALSE,-8.685632,2.806698,-9.939219,0.0149310777777778,2.807723,0.408423875089922,33.7088556042326,0.436704037790451,0.191835898333333,-3.50842963981043,8.11122601589544,2.75455216518132,11.7664962038204,6.60948613917896
8_FALSE_2_5,379.333333,1,378.15,8,FALSE,5,2,1.183333,1.78333300000003,5,TRUE,brake,FALSE,-4.969754,1.285123,-5.347917,0.0675926727777778,1.285514,0.336798365939297,1.11291322559001,0.155065796847239,0.188462011111111,-1.48221960619469,7.70662611525299,2.00558964748966,6.1410942978355,4.21176278097388
8_FALSE_4_3,599.316667,2,598.183333,8,FALSE,3,4,1.1333340000001,1.36666700000001,3,TRUE,brake,FALSE,-9.844601,5.539804,-10.438889,-0.129452604444444,5.53989,0.840891570084121,155.971292083543,1.30214274042441,0.498875938888889,-6.64015734749035,10.7886455933653,2.92714502360942,15.1823779211382,6.34305550279053
8_FALSE_6_5,878.566667,3,877.533333,8,FALSE,5,6,1.03333400000008,1.5,5,TRUE,brake,FALSE,-7.555408,1.07924,-7.939001,0.00979122611111111,0.917797,0.188239615815918,0.688756036199339,0.0647791104948274,0.106648543888889,-1.23173367313916,9.13649619145992,4.29677039604994,10.0144548192557,4.27320024092984
8_TRUE_10_3,1629.483333,4,1628.383333,8,TRUE,3,10,1.09999999999991,1.33333399999992,3,TRUE,brake,FALSE,-5.323066,5.24153,-5.703898,-0.0241899333333333,5.371202,0.948802614007731,4.48834405583605,0.959769428385244,0.470075787777778,-0.688068912758997,5.89350567110518,5.31540037460079,7.34464117973844,8.22493259788357
8_TRUE_1_5,382.333333,1,381.366667,8,TRUE,5,1,0.966665999999975,1.41666600000002,5,TRUE,brake,FALSE,-9.727839,1.093468,-10.114944,0.0154591188888889,0.903644,0.136301332712746,0.722115113944047,0.136889754216331,0.0878410377777778,-1.06425614173228,9.9162623469216,3.96545048817553,9.47357408097939,4.99866042198556
8_TRUE_7_3,1280.85,2,1279.8,8,TRUE,3,7,1.04999999999995,1.2666670000001,3,TRUE,brake,FALSE,-9.851525,0.354589,-10.232341,0.0344841138888889,0.353138,0.0977443117257914,4.9256649543313,0.131819351548123,0.0781202211111111,-2.76581289463602,6.49665042158673,6.81457597168605,6.51449429073751,8.21918860988103
8_TRUE_8_5,1410.583333,3,1409.266667,8,TRUE,5,8,1.31666599999994,1.34999999999991,5,TRUE,brake,FALSE,-4.754577,1.244742,-5.135814,0.0266328133333333,1.238348,0.370259145174634,1.41817363199898,0.104067474380406,0.263855584444444,-1.2479628699187,6.88600309534483,4.62276302457969,8.85330227307108,5.55697588043146
9_FALSE_1_3,546.9,1,545.8,9,FALSE,3,1,1.10000000000002,1.11666700000001,3,TRUE,brake,FALSE,-10.159821,1.350529,-10.537177,0.11548208,1.350634,0.345821910297918,2.29255546528825,0.227743786946474,0.26984075,-5.77521407983193,15.0531322093155,3.05731757365793,12.7038861824231,4.8510305920957
9_FALSE_3_5,764.6,2,762.566667,9,FALSE,5,3,2.03333299999997,1.16666599999996,5,TRUE,brake,FALSE,-10.005203,1.59525,-10.389758,-0.015708885,2.521266,0.35112293451073,2.30578491730251,0.144999078975673,0.162766206666667,-0.683637866383881,13.9903369879895,3.50840906659282,12.4521488342674,4.2748749894848
9_FALSE_6_3,1221.766667,3,1220.516667,9,FALSE,3,6,1.25,1.03333299999986,3,TRUE,brake,FALSE,-9.882959,7.008554,-10.263021,0.00923389055555556,7.922965,1.20088673076341,27.6067199951084,0.546526416186468,0.522748582777778,-2.90184635308642,12.3049694505427,3.18188808209044,12.2257543282957,5.23148844618366
9_FALSE_7_5,1351.35,4,1349.983333,9,FALSE,5,7,1.36666700000001,0.983334000000013,5,TRUE,brake,FALSE,-5.96893,1.093626,-6.352115,-0.00935695888888889,1.09339,0.252278417443792,1.32085238703993,0.136122754726559,0.175168576666667,-1.29659925132743,10.580189898728,3.73327499519618,11.8340459918088,3.835751214724
9_TRUE_10_5,1568.583333,4,1567.383333,9,TRUE,5,10,1.20000000000005,1.16666699999996,5,TRUE,brake,FALSE,-9.827789,0.399352,-10.202861,0.02899815,0.403034,0.123997135514321,1.14250286665775,0.0892920341661053,0.0974694122222222,-3.57109752097902,4.4608708506328,2.2683038286053,9.67742726509738,4.95947679682087
9_TRUE_2_3,444.116667,1,442.933333,9,TRUE,3,2,1.183334,1.5,3,FALSE,steer,FALSE,-7.957207,0.534603,-10.316284,0.0179797744444445,0.534642,0.174209683529795,1.9338857676163,0.207784391735457,0.137448707222222,-4.38772875570033,7.62104267488053,2.98303861662492,11.8209008144464,4.47180719288812
9_TRUE_4_5,661.216667,2,659.933333,9,TRUE,5,4,1.28333400000008,1.56666700000005,5,TRUE,brake,FALSE,-9.726346,0.533339,-10.106993,0.04113684,0.534536,0.156329779608922,1.02257122868389,0.117571328438392,0.119822382777778,-1.83397565860215,3.37465060583162,2.69719315013939,10.6241758375528,5.06722135722076
9_TRUE_5_3,752,3,751.016667,9,TRUE,3,5,0.983333000000016,0.966666000000032,3,TRUE,brake,FALSE,-10.013141,0.800078,-10.387371,0.0253278711111111,0.812388,0.139034794871528,3.08628350801232,0.118744520406315,0.0965866344444444,-4.02115257827476,2.76601284308891,2.54079978250513,11.4158647831802,5.0349347933932
